{
    "FROM_SOURCE": [
        {
            "from": "http://id.d4k.dk/dataset/cdisc/sdtm/v3-4/",
            "to": "http://id.d4k.dk/dataset/source/cdisc/sdtm/"
        }
    ],
    "HAS_DATASET": [
        {
            "from": "http://id.d4k.dk/dataset/cdisc/sdtm/v3-4/",
            "to": "http://id.d4k.dk/dataset/cdisc/sdtm/v3-4/ag"
        },
        {
            "from": "http://id.d4k.dk/dataset/cdisc/sdtm/v3-4/",
            "to": "http://id.d4k.dk/dataset/cdisc/sdtm/v3-4/cm"
        },
        {
            "from": "http://id.d4k.dk/dataset/cdisc/sdtm/v3-4/",
            "to": "http://id.d4k.dk/dataset/cdisc/sdtm/v3-4/ec"
        },
        {
            "from": "http://id.d4k.dk/dataset/cdisc/sdtm/v3-4/",
            "to": "http://id.d4k.dk/dataset/cdisc/sdtm/v3-4/ex"
        },
        {
            "from": "http://id.d4k.dk/dataset/cdisc/sdtm/v3-4/",
            "to": "http://id.d4k.dk/dataset/cdisc/sdtm/v3-4/ml"
        },
        {
            "from": "http://id.d4k.dk/dataset/cdisc/sdtm/v3-4/",
            "to": "http://id.d4k.dk/dataset/cdisc/sdtm/v3-4/pr"
        },
        {
            "from": "http://id.d4k.dk/dataset/cdisc/sdtm/v3-4/",
            "to": "http://id.d4k.dk/dataset/cdisc/sdtm/v3-4/su"
        },
        {
            "from": "http://id.d4k.dk/dataset/cdisc/sdtm/v3-4/",
            "to": "http://id.d4k.dk/dataset/cdisc/sdtm/v3-4/ae"
        },
        {
            "from": "http://id.d4k.dk/dataset/cdisc/sdtm/v3-4/",
            "to": "http://id.d4k.dk/dataset/cdisc/sdtm/v3-4/be"
        },
        {
            "from": "http://id.d4k.dk/dataset/cdisc/sdtm/v3-4/",
            "to": "http://id.d4k.dk/dataset/cdisc/sdtm/v3-4/ce"
        },
        {
            "from": "http://id.d4k.dk/dataset/cdisc/sdtm/v3-4/",
            "to": "http://id.d4k.dk/dataset/cdisc/sdtm/v3-4/ds"
        },
        {
            "from": "http://id.d4k.dk/dataset/cdisc/sdtm/v3-4/",
            "to": "http://id.d4k.dk/dataset/cdisc/sdtm/v3-4/dv"
        },
        {
            "from": "http://id.d4k.dk/dataset/cdisc/sdtm/v3-4/",
            "to": "http://id.d4k.dk/dataset/cdisc/sdtm/v3-4/ho"
        },
        {
            "from": "http://id.d4k.dk/dataset/cdisc/sdtm/v3-4/",
            "to": "http://id.d4k.dk/dataset/cdisc/sdtm/v3-4/mh"
        },
        {
            "from": "http://id.d4k.dk/dataset/cdisc/sdtm/v3-4/",
            "to": "http://id.d4k.dk/dataset/cdisc/sdtm/v3-4/bs"
        },
        {
            "from": "http://id.d4k.dk/dataset/cdisc/sdtm/v3-4/",
            "to": "http://id.d4k.dk/dataset/cdisc/sdtm/v3-4/cp"
        },
        {
            "from": "http://id.d4k.dk/dataset/cdisc/sdtm/v3-4/",
            "to": "http://id.d4k.dk/dataset/cdisc/sdtm/v3-4/cv"
        },
        {
            "from": "http://id.d4k.dk/dataset/cdisc/sdtm/v3-4/",
            "to": "http://id.d4k.dk/dataset/cdisc/sdtm/v3-4/da"
        },
        {
            "from": "http://id.d4k.dk/dataset/cdisc/sdtm/v3-4/",
            "to": "http://id.d4k.dk/dataset/cdisc/sdtm/v3-4/dd"
        },
        {
            "from": "http://id.d4k.dk/dataset/cdisc/sdtm/v3-4/",
            "to": "http://id.d4k.dk/dataset/cdisc/sdtm/v3-4/eg"
        },
        {
            "from": "http://id.d4k.dk/dataset/cdisc/sdtm/v3-4/",
            "to": "http://id.d4k.dk/dataset/cdisc/sdtm/v3-4/ft"
        },
        {
            "from": "http://id.d4k.dk/dataset/cdisc/sdtm/v3-4/",
            "to": "http://id.d4k.dk/dataset/cdisc/sdtm/v3-4/gf"
        },
        {
            "from": "http://id.d4k.dk/dataset/cdisc/sdtm/v3-4/",
            "to": "http://id.d4k.dk/dataset/cdisc/sdtm/v3-4/ie"
        },
        {
            "from": "http://id.d4k.dk/dataset/cdisc/sdtm/v3-4/",
            "to": "http://id.d4k.dk/dataset/cdisc/sdtm/v3-4/is"
        },
        {
            "from": "http://id.d4k.dk/dataset/cdisc/sdtm/v3-4/",
            "to": "http://id.d4k.dk/dataset/cdisc/sdtm/v3-4/lb"
        },
        {
            "from": "http://id.d4k.dk/dataset/cdisc/sdtm/v3-4/",
            "to": "http://id.d4k.dk/dataset/cdisc/sdtm/v3-4/mb"
        },
        {
            "from": "http://id.d4k.dk/dataset/cdisc/sdtm/v3-4/",
            "to": "http://id.d4k.dk/dataset/cdisc/sdtm/v3-4/mi"
        },
        {
            "from": "http://id.d4k.dk/dataset/cdisc/sdtm/v3-4/",
            "to": "http://id.d4k.dk/dataset/cdisc/sdtm/v3-4/mk"
        },
        {
            "from": "http://id.d4k.dk/dataset/cdisc/sdtm/v3-4/",
            "to": "http://id.d4k.dk/dataset/cdisc/sdtm/v3-4/ms"
        },
        {
            "from": "http://id.d4k.dk/dataset/cdisc/sdtm/v3-4/",
            "to": "http://id.d4k.dk/dataset/cdisc/sdtm/v3-4/nv"
        },
        {
            "from": "http://id.d4k.dk/dataset/cdisc/sdtm/v3-4/",
            "to": "http://id.d4k.dk/dataset/cdisc/sdtm/v3-4/oe"
        },
        {
            "from": "http://id.d4k.dk/dataset/cdisc/sdtm/v3-4/",
            "to": "http://id.d4k.dk/dataset/cdisc/sdtm/v3-4/pc"
        },
        {
            "from": "http://id.d4k.dk/dataset/cdisc/sdtm/v3-4/",
            "to": "http://id.d4k.dk/dataset/cdisc/sdtm/v3-4/pe"
        },
        {
            "from": "http://id.d4k.dk/dataset/cdisc/sdtm/v3-4/",
            "to": "http://id.d4k.dk/dataset/cdisc/sdtm/v3-4/pp"
        },
        {
            "from": "http://id.d4k.dk/dataset/cdisc/sdtm/v3-4/",
            "to": "http://id.d4k.dk/dataset/cdisc/sdtm/v3-4/qs"
        },
        {
            "from": "http://id.d4k.dk/dataset/cdisc/sdtm/v3-4/",
            "to": "http://id.d4k.dk/dataset/cdisc/sdtm/v3-4/re"
        },
        {
            "from": "http://id.d4k.dk/dataset/cdisc/sdtm/v3-4/",
            "to": "http://id.d4k.dk/dataset/cdisc/sdtm/v3-4/rp"
        },
        {
            "from": "http://id.d4k.dk/dataset/cdisc/sdtm/v3-4/",
            "to": "http://id.d4k.dk/dataset/cdisc/sdtm/v3-4/rs"
        },
        {
            "from": "http://id.d4k.dk/dataset/cdisc/sdtm/v3-4/",
            "to": "http://id.d4k.dk/dataset/cdisc/sdtm/v3-4/sc"
        },
        {
            "from": "http://id.d4k.dk/dataset/cdisc/sdtm/v3-4/",
            "to": "http://id.d4k.dk/dataset/cdisc/sdtm/v3-4/ss"
        },
        {
            "from": "http://id.d4k.dk/dataset/cdisc/sdtm/v3-4/",
            "to": "http://id.d4k.dk/dataset/cdisc/sdtm/v3-4/tr"
        },
        {
            "from": "http://id.d4k.dk/dataset/cdisc/sdtm/v3-4/",
            "to": "http://id.d4k.dk/dataset/cdisc/sdtm/v3-4/tu"
        },
        {
            "from": "http://id.d4k.dk/dataset/cdisc/sdtm/v3-4/",
            "to": "http://id.d4k.dk/dataset/cdisc/sdtm/v3-4/ur"
        },
        {
            "from": "http://id.d4k.dk/dataset/cdisc/sdtm/v3-4/",
            "to": "http://id.d4k.dk/dataset/cdisc/sdtm/v3-4/vs"
        },
        {
            "from": "http://id.d4k.dk/dataset/cdisc/sdtm/v3-4/",
            "to": "http://id.d4k.dk/dataset/cdisc/sdtm/v3-4/fa"
        },
        {
            "from": "http://id.d4k.dk/dataset/cdisc/sdtm/v3-4/",
            "to": "http://id.d4k.dk/dataset/cdisc/sdtm/v3-4/sr"
        },
        {
            "from": "http://id.d4k.dk/dataset/cdisc/sdtm/v3-4/",
            "to": "http://id.d4k.dk/dataset/cdisc/sdtm/v3-4/co"
        },
        {
            "from": "http://id.d4k.dk/dataset/cdisc/sdtm/v3-4/",
            "to": "http://id.d4k.dk/dataset/cdisc/sdtm/v3-4/dm"
        },
        {
            "from": "http://id.d4k.dk/dataset/cdisc/sdtm/v3-4/",
            "to": "http://id.d4k.dk/dataset/cdisc/sdtm/v3-4/se"
        },
        {
            "from": "http://id.d4k.dk/dataset/cdisc/sdtm/v3-4/",
            "to": "http://id.d4k.dk/dataset/cdisc/sdtm/v3-4/sm"
        },
        {
            "from": "http://id.d4k.dk/dataset/cdisc/sdtm/v3-4/",
            "to": "http://id.d4k.dk/dataset/cdisc/sdtm/v3-4/sv"
        },
        {
            "from": "http://id.d4k.dk/dataset/cdisc/sdtm/v3-4/",
            "to": "http://id.d4k.dk/dataset/cdisc/sdtm/v3-4/ta"
        },
        {
            "from": "http://id.d4k.dk/dataset/cdisc/sdtm/v3-4/",
            "to": "http://id.d4k.dk/dataset/cdisc/sdtm/v3-4/td"
        },
        {
            "from": "http://id.d4k.dk/dataset/cdisc/sdtm/v3-4/",
            "to": "http://id.d4k.dk/dataset/cdisc/sdtm/v3-4/te"
        },
        {
            "from": "http://id.d4k.dk/dataset/cdisc/sdtm/v3-4/",
            "to": "http://id.d4k.dk/dataset/cdisc/sdtm/v3-4/ti"
        },
        {
            "from": "http://id.d4k.dk/dataset/cdisc/sdtm/v3-4/",
            "to": "http://id.d4k.dk/dataset/cdisc/sdtm/v3-4/tm"
        },
        {
            "from": "http://id.d4k.dk/dataset/cdisc/sdtm/v3-4/",
            "to": "http://id.d4k.dk/dataset/cdisc/sdtm/v3-4/ts"
        },
        {
            "from": "http://id.d4k.dk/dataset/cdisc/sdtm/v3-4/",
            "to": "http://id.d4k.dk/dataset/cdisc/sdtm/v3-4/tv"
        },
        {
            "from": "http://id.d4k.dk/dataset/cdisc/sdtm/v3-4/",
            "to": "http://id.d4k.dk/dataset/cdisc/sdtm/v3-4/oi"
        },
        {
            "from": "http://id.d4k.dk/dataset/cdisc/sdtm/v3-4/",
            "to": "http://id.d4k.dk/dataset/cdisc/sdtm/v3-4/relrec"
        },
        {
            "from": "http://id.d4k.dk/dataset/cdisc/sdtm/v3-4/",
            "to": "http://id.d4k.dk/dataset/cdisc/sdtm/v3-4/relspec"
        },
        {
            "from": "http://id.d4k.dk/dataset/cdisc/sdtm/v3-4/",
            "to": "http://id.d4k.dk/dataset/cdisc/sdtm/v3-4/relsub"
        },
        {
            "from": "http://id.d4k.dk/dataset/cdisc/sdtm/v3-4/",
            "to": "http://id.d4k.dk/dataset/cdisc/sdtm/v3-4/suppqual"
        }
    ],
    "HAS_VARIABLE": [
        {
            "from": "http://id.d4k.dk/dataset/cdisc/sdtm/v3-4/ag",
            "to": "http://id.d4k.dk/dataset/cdisc/sdtm/v3-4/ag/studyid"
        },
        {
            "from": "http://id.d4k.dk/dataset/cdisc/sdtm/v3-4/ag",
            "to": "http://id.d4k.dk/dataset/cdisc/sdtm/v3-4/ag/domain"
        },
        {
            "from": "http://id.d4k.dk/dataset/cdisc/sdtm/v3-4/ag",
            "to": "http://id.d4k.dk/dataset/cdisc/sdtm/v3-4/ag/usubjid"
        },
        {
            "from": "http://id.d4k.dk/dataset/cdisc/sdtm/v3-4/ag",
            "to": "http://id.d4k.dk/dataset/cdisc/sdtm/v3-4/ag/agseq"
        },
        {
            "from": "http://id.d4k.dk/dataset/cdisc/sdtm/v3-4/ag",
            "to": "http://id.d4k.dk/dataset/cdisc/sdtm/v3-4/ag/aggrpid"
        },
        {
            "from": "http://id.d4k.dk/dataset/cdisc/sdtm/v3-4/ag",
            "to": "http://id.d4k.dk/dataset/cdisc/sdtm/v3-4/ag/agspid"
        },
        {
            "from": "http://id.d4k.dk/dataset/cdisc/sdtm/v3-4/ag",
            "to": "http://id.d4k.dk/dataset/cdisc/sdtm/v3-4/ag/aglnkid"
        },
        {
            "from": "http://id.d4k.dk/dataset/cdisc/sdtm/v3-4/ag",
            "to": "http://id.d4k.dk/dataset/cdisc/sdtm/v3-4/ag/aglnkgrp"
        },
        {
            "from": "http://id.d4k.dk/dataset/cdisc/sdtm/v3-4/ag",
            "to": "http://id.d4k.dk/dataset/cdisc/sdtm/v3-4/ag/agtrt"
        },
        {
            "from": "http://id.d4k.dk/dataset/cdisc/sdtm/v3-4/ag",
            "to": "http://id.d4k.dk/dataset/cdisc/sdtm/v3-4/ag/agmodify"
        },
        {
            "from": "http://id.d4k.dk/dataset/cdisc/sdtm/v3-4/ag",
            "to": "http://id.d4k.dk/dataset/cdisc/sdtm/v3-4/ag/agdecod"
        },
        {
            "from": "http://id.d4k.dk/dataset/cdisc/sdtm/v3-4/ag",
            "to": "http://id.d4k.dk/dataset/cdisc/sdtm/v3-4/ag/agcat"
        },
        {
            "from": "http://id.d4k.dk/dataset/cdisc/sdtm/v3-4/ag",
            "to": "http://id.d4k.dk/dataset/cdisc/sdtm/v3-4/ag/agscat"
        },
        {
            "from": "http://id.d4k.dk/dataset/cdisc/sdtm/v3-4/ag",
            "to": "http://id.d4k.dk/dataset/cdisc/sdtm/v3-4/ag/agpresp"
        },
        {
            "from": "http://id.d4k.dk/dataset/cdisc/sdtm/v3-4/ag",
            "to": "http://id.d4k.dk/dataset/cdisc/sdtm/v3-4/ag/agoccur"
        },
        {
            "from": "http://id.d4k.dk/dataset/cdisc/sdtm/v3-4/ag",
            "to": "http://id.d4k.dk/dataset/cdisc/sdtm/v3-4/ag/agstat"
        },
        {
            "from": "http://id.d4k.dk/dataset/cdisc/sdtm/v3-4/ag",
            "to": "http://id.d4k.dk/dataset/cdisc/sdtm/v3-4/ag/agreasnd"
        },
        {
            "from": "http://id.d4k.dk/dataset/cdisc/sdtm/v3-4/ag",
            "to": "http://id.d4k.dk/dataset/cdisc/sdtm/v3-4/ag/agclas"
        },
        {
            "from": "http://id.d4k.dk/dataset/cdisc/sdtm/v3-4/ag",
            "to": "http://id.d4k.dk/dataset/cdisc/sdtm/v3-4/ag/agclascd"
        },
        {
            "from": "http://id.d4k.dk/dataset/cdisc/sdtm/v3-4/ag",
            "to": "http://id.d4k.dk/dataset/cdisc/sdtm/v3-4/ag/agdose"
        },
        {
            "from": "http://id.d4k.dk/dataset/cdisc/sdtm/v3-4/ag",
            "to": "http://id.d4k.dk/dataset/cdisc/sdtm/v3-4/ag/agdostxt"
        },
        {
            "from": "http://id.d4k.dk/dataset/cdisc/sdtm/v3-4/ag",
            "to": "http://id.d4k.dk/dataset/cdisc/sdtm/v3-4/ag/agdosu"
        },
        {
            "from": "http://id.d4k.dk/dataset/cdisc/sdtm/v3-4/ag",
            "to": "http://id.d4k.dk/dataset/cdisc/sdtm/v3-4/ag/agdosfrm"
        },
        {
            "from": "http://id.d4k.dk/dataset/cdisc/sdtm/v3-4/ag",
            "to": "http://id.d4k.dk/dataset/cdisc/sdtm/v3-4/ag/agdosfrq"
        },
        {
            "from": "http://id.d4k.dk/dataset/cdisc/sdtm/v3-4/ag",
            "to": "http://id.d4k.dk/dataset/cdisc/sdtm/v3-4/ag/agroute"
        },
        {
            "from": "http://id.d4k.dk/dataset/cdisc/sdtm/v3-4/ag",
            "to": "http://id.d4k.dk/dataset/cdisc/sdtm/v3-4/ag/visitnum"
        },
        {
            "from": "http://id.d4k.dk/dataset/cdisc/sdtm/v3-4/ag",
            "to": "http://id.d4k.dk/dataset/cdisc/sdtm/v3-4/ag/visit"
        },
        {
            "from": "http://id.d4k.dk/dataset/cdisc/sdtm/v3-4/ag",
            "to": "http://id.d4k.dk/dataset/cdisc/sdtm/v3-4/ag/visitdy"
        },
        {
            "from": "http://id.d4k.dk/dataset/cdisc/sdtm/v3-4/ag",
            "to": "http://id.d4k.dk/dataset/cdisc/sdtm/v3-4/ag/taetord"
        },
        {
            "from": "http://id.d4k.dk/dataset/cdisc/sdtm/v3-4/ag",
            "to": "http://id.d4k.dk/dataset/cdisc/sdtm/v3-4/ag/epoch"
        },
        {
            "from": "http://id.d4k.dk/dataset/cdisc/sdtm/v3-4/ag",
            "to": "http://id.d4k.dk/dataset/cdisc/sdtm/v3-4/ag/agstdtc"
        },
        {
            "from": "http://id.d4k.dk/dataset/cdisc/sdtm/v3-4/ag",
            "to": "http://id.d4k.dk/dataset/cdisc/sdtm/v3-4/ag/agendtc"
        },
        {
            "from": "http://id.d4k.dk/dataset/cdisc/sdtm/v3-4/ag",
            "to": "http://id.d4k.dk/dataset/cdisc/sdtm/v3-4/ag/agstdy"
        },
        {
            "from": "http://id.d4k.dk/dataset/cdisc/sdtm/v3-4/ag",
            "to": "http://id.d4k.dk/dataset/cdisc/sdtm/v3-4/ag/agendy"
        },
        {
            "from": "http://id.d4k.dk/dataset/cdisc/sdtm/v3-4/ag",
            "to": "http://id.d4k.dk/dataset/cdisc/sdtm/v3-4/ag/agdur"
        },
        {
            "from": "http://id.d4k.dk/dataset/cdisc/sdtm/v3-4/ag",
            "to": "http://id.d4k.dk/dataset/cdisc/sdtm/v3-4/ag/agstrf"
        },
        {
            "from": "http://id.d4k.dk/dataset/cdisc/sdtm/v3-4/ag",
            "to": "http://id.d4k.dk/dataset/cdisc/sdtm/v3-4/ag/agenrf"
        },
        {
            "from": "http://id.d4k.dk/dataset/cdisc/sdtm/v3-4/ag",
            "to": "http://id.d4k.dk/dataset/cdisc/sdtm/v3-4/ag/agstrtpt"
        },
        {
            "from": "http://id.d4k.dk/dataset/cdisc/sdtm/v3-4/ag",
            "to": "http://id.d4k.dk/dataset/cdisc/sdtm/v3-4/ag/agsttpt"
        },
        {
            "from": "http://id.d4k.dk/dataset/cdisc/sdtm/v3-4/ag",
            "to": "http://id.d4k.dk/dataset/cdisc/sdtm/v3-4/ag/agenrtpt"
        },
        {
            "from": "http://id.d4k.dk/dataset/cdisc/sdtm/v3-4/ag",
            "to": "http://id.d4k.dk/dataset/cdisc/sdtm/v3-4/ag/agentpt"
        },
        {
            "from": "http://id.d4k.dk/dataset/cdisc/sdtm/v3-4/cm",
            "to": "http://id.d4k.dk/dataset/cdisc/sdtm/v3-4/cm/studyid"
        },
        {
            "from": "http://id.d4k.dk/dataset/cdisc/sdtm/v3-4/cm",
            "to": "http://id.d4k.dk/dataset/cdisc/sdtm/v3-4/cm/domain"
        },
        {
            "from": "http://id.d4k.dk/dataset/cdisc/sdtm/v3-4/cm",
            "to": "http://id.d4k.dk/dataset/cdisc/sdtm/v3-4/cm/usubjid"
        },
        {
            "from": "http://id.d4k.dk/dataset/cdisc/sdtm/v3-4/cm",
            "to": "http://id.d4k.dk/dataset/cdisc/sdtm/v3-4/cm/cmseq"
        },
        {
            "from": "http://id.d4k.dk/dataset/cdisc/sdtm/v3-4/cm",
            "to": "http://id.d4k.dk/dataset/cdisc/sdtm/v3-4/cm/cmgrpid"
        },
        {
            "from": "http://id.d4k.dk/dataset/cdisc/sdtm/v3-4/cm",
            "to": "http://id.d4k.dk/dataset/cdisc/sdtm/v3-4/cm/cmspid"
        },
        {
            "from": "http://id.d4k.dk/dataset/cdisc/sdtm/v3-4/cm",
            "to": "http://id.d4k.dk/dataset/cdisc/sdtm/v3-4/cm/cmtrt"
        },
        {
            "from": "http://id.d4k.dk/dataset/cdisc/sdtm/v3-4/cm",
            "to": "http://id.d4k.dk/dataset/cdisc/sdtm/v3-4/cm/cmmodify"
        },
        {
            "from": "http://id.d4k.dk/dataset/cdisc/sdtm/v3-4/cm",
            "to": "http://id.d4k.dk/dataset/cdisc/sdtm/v3-4/cm/cmdecod"
        },
        {
            "from": "http://id.d4k.dk/dataset/cdisc/sdtm/v3-4/cm",
            "to": "http://id.d4k.dk/dataset/cdisc/sdtm/v3-4/cm/cmcat"
        },
        {
            "from": "http://id.d4k.dk/dataset/cdisc/sdtm/v3-4/cm",
            "to": "http://id.d4k.dk/dataset/cdisc/sdtm/v3-4/cm/cmscat"
        },
        {
            "from": "http://id.d4k.dk/dataset/cdisc/sdtm/v3-4/cm",
            "to": "http://id.d4k.dk/dataset/cdisc/sdtm/v3-4/cm/cmpresp"
        },
        {
            "from": "http://id.d4k.dk/dataset/cdisc/sdtm/v3-4/cm",
            "to": "http://id.d4k.dk/dataset/cdisc/sdtm/v3-4/cm/cmoccur"
        },
        {
            "from": "http://id.d4k.dk/dataset/cdisc/sdtm/v3-4/cm",
            "to": "http://id.d4k.dk/dataset/cdisc/sdtm/v3-4/cm/cmstat"
        },
        {
            "from": "http://id.d4k.dk/dataset/cdisc/sdtm/v3-4/cm",
            "to": "http://id.d4k.dk/dataset/cdisc/sdtm/v3-4/cm/cmreasnd"
        },
        {
            "from": "http://id.d4k.dk/dataset/cdisc/sdtm/v3-4/cm",
            "to": "http://id.d4k.dk/dataset/cdisc/sdtm/v3-4/cm/cmindc"
        },
        {
            "from": "http://id.d4k.dk/dataset/cdisc/sdtm/v3-4/cm",
            "to": "http://id.d4k.dk/dataset/cdisc/sdtm/v3-4/cm/cmclas"
        },
        {
            "from": "http://id.d4k.dk/dataset/cdisc/sdtm/v3-4/cm",
            "to": "http://id.d4k.dk/dataset/cdisc/sdtm/v3-4/cm/cmclascd"
        },
        {
            "from": "http://id.d4k.dk/dataset/cdisc/sdtm/v3-4/cm",
            "to": "http://id.d4k.dk/dataset/cdisc/sdtm/v3-4/cm/cmdose"
        },
        {
            "from": "http://id.d4k.dk/dataset/cdisc/sdtm/v3-4/cm",
            "to": "http://id.d4k.dk/dataset/cdisc/sdtm/v3-4/cm/cmdostxt"
        },
        {
            "from": "http://id.d4k.dk/dataset/cdisc/sdtm/v3-4/cm",
            "to": "http://id.d4k.dk/dataset/cdisc/sdtm/v3-4/cm/cmdosu"
        },
        {
            "from": "http://id.d4k.dk/dataset/cdisc/sdtm/v3-4/cm",
            "to": "http://id.d4k.dk/dataset/cdisc/sdtm/v3-4/cm/cmdosfrm"
        },
        {
            "from": "http://id.d4k.dk/dataset/cdisc/sdtm/v3-4/cm",
            "to": "http://id.d4k.dk/dataset/cdisc/sdtm/v3-4/cm/cmdosfrq"
        },
        {
            "from": "http://id.d4k.dk/dataset/cdisc/sdtm/v3-4/cm",
            "to": "http://id.d4k.dk/dataset/cdisc/sdtm/v3-4/cm/cmdostot"
        },
        {
            "from": "http://id.d4k.dk/dataset/cdisc/sdtm/v3-4/cm",
            "to": "http://id.d4k.dk/dataset/cdisc/sdtm/v3-4/cm/cmdosrgm"
        },
        {
            "from": "http://id.d4k.dk/dataset/cdisc/sdtm/v3-4/cm",
            "to": "http://id.d4k.dk/dataset/cdisc/sdtm/v3-4/cm/cmroute"
        },
        {
            "from": "http://id.d4k.dk/dataset/cdisc/sdtm/v3-4/cm",
            "to": "http://id.d4k.dk/dataset/cdisc/sdtm/v3-4/cm/cmadj"
        },
        {
            "from": "http://id.d4k.dk/dataset/cdisc/sdtm/v3-4/cm",
            "to": "http://id.d4k.dk/dataset/cdisc/sdtm/v3-4/cm/cmrsdisc"
        },
        {
            "from": "http://id.d4k.dk/dataset/cdisc/sdtm/v3-4/cm",
            "to": "http://id.d4k.dk/dataset/cdisc/sdtm/v3-4/cm/taetord"
        },
        {
            "from": "http://id.d4k.dk/dataset/cdisc/sdtm/v3-4/cm",
            "to": "http://id.d4k.dk/dataset/cdisc/sdtm/v3-4/cm/epoch"
        },
        {
            "from": "http://id.d4k.dk/dataset/cdisc/sdtm/v3-4/cm",
            "to": "http://id.d4k.dk/dataset/cdisc/sdtm/v3-4/cm/cmstdtc"
        },
        {
            "from": "http://id.d4k.dk/dataset/cdisc/sdtm/v3-4/cm",
            "to": "http://id.d4k.dk/dataset/cdisc/sdtm/v3-4/cm/cmendtc"
        },
        {
            "from": "http://id.d4k.dk/dataset/cdisc/sdtm/v3-4/cm",
            "to": "http://id.d4k.dk/dataset/cdisc/sdtm/v3-4/cm/cmstdy"
        },
        {
            "from": "http://id.d4k.dk/dataset/cdisc/sdtm/v3-4/cm",
            "to": "http://id.d4k.dk/dataset/cdisc/sdtm/v3-4/cm/cmendy"
        },
        {
            "from": "http://id.d4k.dk/dataset/cdisc/sdtm/v3-4/cm",
            "to": "http://id.d4k.dk/dataset/cdisc/sdtm/v3-4/cm/cmdur"
        },
        {
            "from": "http://id.d4k.dk/dataset/cdisc/sdtm/v3-4/cm",
            "to": "http://id.d4k.dk/dataset/cdisc/sdtm/v3-4/cm/cmstrf"
        },
        {
            "from": "http://id.d4k.dk/dataset/cdisc/sdtm/v3-4/cm",
            "to": "http://id.d4k.dk/dataset/cdisc/sdtm/v3-4/cm/cmenrf"
        },
        {
            "from": "http://id.d4k.dk/dataset/cdisc/sdtm/v3-4/cm",
            "to": "http://id.d4k.dk/dataset/cdisc/sdtm/v3-4/cm/cmstrtpt"
        },
        {
            "from": "http://id.d4k.dk/dataset/cdisc/sdtm/v3-4/cm",
            "to": "http://id.d4k.dk/dataset/cdisc/sdtm/v3-4/cm/cmsttpt"
        },
        {
            "from": "http://id.d4k.dk/dataset/cdisc/sdtm/v3-4/cm",
            "to": "http://id.d4k.dk/dataset/cdisc/sdtm/v3-4/cm/cmenrtpt"
        },
        {
            "from": "http://id.d4k.dk/dataset/cdisc/sdtm/v3-4/cm",
            "to": "http://id.d4k.dk/dataset/cdisc/sdtm/v3-4/cm/cmentpt"
        },
        {
            "from": "http://id.d4k.dk/dataset/cdisc/sdtm/v3-4/ec",
            "to": "http://id.d4k.dk/dataset/cdisc/sdtm/v3-4/ec/studyid"
        },
        {
            "from": "http://id.d4k.dk/dataset/cdisc/sdtm/v3-4/ec",
            "to": "http://id.d4k.dk/dataset/cdisc/sdtm/v3-4/ec/domain"
        },
        {
            "from": "http://id.d4k.dk/dataset/cdisc/sdtm/v3-4/ec",
            "to": "http://id.d4k.dk/dataset/cdisc/sdtm/v3-4/ec/usubjid"
        },
        {
            "from": "http://id.d4k.dk/dataset/cdisc/sdtm/v3-4/ec",
            "to": "http://id.d4k.dk/dataset/cdisc/sdtm/v3-4/ec/ecseq"
        },
        {
            "from": "http://id.d4k.dk/dataset/cdisc/sdtm/v3-4/ec",
            "to": "http://id.d4k.dk/dataset/cdisc/sdtm/v3-4/ec/ecgrpid"
        },
        {
            "from": "http://id.d4k.dk/dataset/cdisc/sdtm/v3-4/ec",
            "to": "http://id.d4k.dk/dataset/cdisc/sdtm/v3-4/ec/ecrefid"
        },
        {
            "from": "http://id.d4k.dk/dataset/cdisc/sdtm/v3-4/ec",
            "to": "http://id.d4k.dk/dataset/cdisc/sdtm/v3-4/ec/ecspid"
        },
        {
            "from": "http://id.d4k.dk/dataset/cdisc/sdtm/v3-4/ec",
            "to": "http://id.d4k.dk/dataset/cdisc/sdtm/v3-4/ec/eclnkid"
        },
        {
            "from": "http://id.d4k.dk/dataset/cdisc/sdtm/v3-4/ec",
            "to": "http://id.d4k.dk/dataset/cdisc/sdtm/v3-4/ec/eclnkgrp"
        },
        {
            "from": "http://id.d4k.dk/dataset/cdisc/sdtm/v3-4/ec",
            "to": "http://id.d4k.dk/dataset/cdisc/sdtm/v3-4/ec/ectrt"
        },
        {
            "from": "http://id.d4k.dk/dataset/cdisc/sdtm/v3-4/ec",
            "to": "http://id.d4k.dk/dataset/cdisc/sdtm/v3-4/ec/ecmood"
        },
        {
            "from": "http://id.d4k.dk/dataset/cdisc/sdtm/v3-4/ec",
            "to": "http://id.d4k.dk/dataset/cdisc/sdtm/v3-4/ec/eccat"
        },
        {
            "from": "http://id.d4k.dk/dataset/cdisc/sdtm/v3-4/ec",
            "to": "http://id.d4k.dk/dataset/cdisc/sdtm/v3-4/ec/ecscat"
        },
        {
            "from": "http://id.d4k.dk/dataset/cdisc/sdtm/v3-4/ec",
            "to": "http://id.d4k.dk/dataset/cdisc/sdtm/v3-4/ec/ecpresp"
        },
        {
            "from": "http://id.d4k.dk/dataset/cdisc/sdtm/v3-4/ec",
            "to": "http://id.d4k.dk/dataset/cdisc/sdtm/v3-4/ec/ecoccur"
        },
        {
            "from": "http://id.d4k.dk/dataset/cdisc/sdtm/v3-4/ec",
            "to": "http://id.d4k.dk/dataset/cdisc/sdtm/v3-4/ec/ecreasoc"
        },
        {
            "from": "http://id.d4k.dk/dataset/cdisc/sdtm/v3-4/ec",
            "to": "http://id.d4k.dk/dataset/cdisc/sdtm/v3-4/ec/ecdose"
        },
        {
            "from": "http://id.d4k.dk/dataset/cdisc/sdtm/v3-4/ec",
            "to": "http://id.d4k.dk/dataset/cdisc/sdtm/v3-4/ec/ecdostxt"
        },
        {
            "from": "http://id.d4k.dk/dataset/cdisc/sdtm/v3-4/ec",
            "to": "http://id.d4k.dk/dataset/cdisc/sdtm/v3-4/ec/ecdosu"
        },
        {
            "from": "http://id.d4k.dk/dataset/cdisc/sdtm/v3-4/ec",
            "to": "http://id.d4k.dk/dataset/cdisc/sdtm/v3-4/ec/ecdosfrm"
        },
        {
            "from": "http://id.d4k.dk/dataset/cdisc/sdtm/v3-4/ec",
            "to": "http://id.d4k.dk/dataset/cdisc/sdtm/v3-4/ec/ecdosfrq"
        },
        {
            "from": "http://id.d4k.dk/dataset/cdisc/sdtm/v3-4/ec",
            "to": "http://id.d4k.dk/dataset/cdisc/sdtm/v3-4/ec/ecdostot"
        },
        {
            "from": "http://id.d4k.dk/dataset/cdisc/sdtm/v3-4/ec",
            "to": "http://id.d4k.dk/dataset/cdisc/sdtm/v3-4/ec/ecdosrgm"
        },
        {
            "from": "http://id.d4k.dk/dataset/cdisc/sdtm/v3-4/ec",
            "to": "http://id.d4k.dk/dataset/cdisc/sdtm/v3-4/ec/ecroute"
        },
        {
            "from": "http://id.d4k.dk/dataset/cdisc/sdtm/v3-4/ec",
            "to": "http://id.d4k.dk/dataset/cdisc/sdtm/v3-4/ec/eclot"
        },
        {
            "from": "http://id.d4k.dk/dataset/cdisc/sdtm/v3-4/ec",
            "to": "http://id.d4k.dk/dataset/cdisc/sdtm/v3-4/ec/ecloc"
        },
        {
            "from": "http://id.d4k.dk/dataset/cdisc/sdtm/v3-4/ec",
            "to": "http://id.d4k.dk/dataset/cdisc/sdtm/v3-4/ec/eclat"
        },
        {
            "from": "http://id.d4k.dk/dataset/cdisc/sdtm/v3-4/ec",
            "to": "http://id.d4k.dk/dataset/cdisc/sdtm/v3-4/ec/ecdir"
        },
        {
            "from": "http://id.d4k.dk/dataset/cdisc/sdtm/v3-4/ec",
            "to": "http://id.d4k.dk/dataset/cdisc/sdtm/v3-4/ec/ecportot"
        },
        {
            "from": "http://id.d4k.dk/dataset/cdisc/sdtm/v3-4/ec",
            "to": "http://id.d4k.dk/dataset/cdisc/sdtm/v3-4/ec/ecfast"
        },
        {
            "from": "http://id.d4k.dk/dataset/cdisc/sdtm/v3-4/ec",
            "to": "http://id.d4k.dk/dataset/cdisc/sdtm/v3-4/ec/ecpstrg"
        },
        {
            "from": "http://id.d4k.dk/dataset/cdisc/sdtm/v3-4/ec",
            "to": "http://id.d4k.dk/dataset/cdisc/sdtm/v3-4/ec/ecpstrgu"
        },
        {
            "from": "http://id.d4k.dk/dataset/cdisc/sdtm/v3-4/ec",
            "to": "http://id.d4k.dk/dataset/cdisc/sdtm/v3-4/ec/ecadj"
        },
        {
            "from": "http://id.d4k.dk/dataset/cdisc/sdtm/v3-4/ec",
            "to": "http://id.d4k.dk/dataset/cdisc/sdtm/v3-4/ec/taetord"
        },
        {
            "from": "http://id.d4k.dk/dataset/cdisc/sdtm/v3-4/ec",
            "to": "http://id.d4k.dk/dataset/cdisc/sdtm/v3-4/ec/epoch"
        },
        {
            "from": "http://id.d4k.dk/dataset/cdisc/sdtm/v3-4/ec",
            "to": "http://id.d4k.dk/dataset/cdisc/sdtm/v3-4/ec/ecstdtc"
        },
        {
            "from": "http://id.d4k.dk/dataset/cdisc/sdtm/v3-4/ec",
            "to": "http://id.d4k.dk/dataset/cdisc/sdtm/v3-4/ec/ecendtc"
        },
        {
            "from": "http://id.d4k.dk/dataset/cdisc/sdtm/v3-4/ec",
            "to": "http://id.d4k.dk/dataset/cdisc/sdtm/v3-4/ec/ecstdy"
        },
        {
            "from": "http://id.d4k.dk/dataset/cdisc/sdtm/v3-4/ec",
            "to": "http://id.d4k.dk/dataset/cdisc/sdtm/v3-4/ec/ecendy"
        },
        {
            "from": "http://id.d4k.dk/dataset/cdisc/sdtm/v3-4/ec",
            "to": "http://id.d4k.dk/dataset/cdisc/sdtm/v3-4/ec/ecdur"
        },
        {
            "from": "http://id.d4k.dk/dataset/cdisc/sdtm/v3-4/ec",
            "to": "http://id.d4k.dk/dataset/cdisc/sdtm/v3-4/ec/ectpt"
        },
        {
            "from": "http://id.d4k.dk/dataset/cdisc/sdtm/v3-4/ec",
            "to": "http://id.d4k.dk/dataset/cdisc/sdtm/v3-4/ec/ectptnum"
        },
        {
            "from": "http://id.d4k.dk/dataset/cdisc/sdtm/v3-4/ec",
            "to": "http://id.d4k.dk/dataset/cdisc/sdtm/v3-4/ec/eceltm"
        },
        {
            "from": "http://id.d4k.dk/dataset/cdisc/sdtm/v3-4/ec",
            "to": "http://id.d4k.dk/dataset/cdisc/sdtm/v3-4/ec/ectptref"
        },
        {
            "from": "http://id.d4k.dk/dataset/cdisc/sdtm/v3-4/ec",
            "to": "http://id.d4k.dk/dataset/cdisc/sdtm/v3-4/ec/ecrftdtc"
        },
        {
            "from": "http://id.d4k.dk/dataset/cdisc/sdtm/v3-4/ex",
            "to": "http://id.d4k.dk/dataset/cdisc/sdtm/v3-4/ex/studyid"
        },
        {
            "from": "http://id.d4k.dk/dataset/cdisc/sdtm/v3-4/ex",
            "to": "http://id.d4k.dk/dataset/cdisc/sdtm/v3-4/ex/domain"
        },
        {
            "from": "http://id.d4k.dk/dataset/cdisc/sdtm/v3-4/ex",
            "to": "http://id.d4k.dk/dataset/cdisc/sdtm/v3-4/ex/usubjid"
        },
        {
            "from": "http://id.d4k.dk/dataset/cdisc/sdtm/v3-4/ex",
            "to": "http://id.d4k.dk/dataset/cdisc/sdtm/v3-4/ex/exseq"
        },
        {
            "from": "http://id.d4k.dk/dataset/cdisc/sdtm/v3-4/ex",
            "to": "http://id.d4k.dk/dataset/cdisc/sdtm/v3-4/ex/exgrpid"
        },
        {
            "from": "http://id.d4k.dk/dataset/cdisc/sdtm/v3-4/ex",
            "to": "http://id.d4k.dk/dataset/cdisc/sdtm/v3-4/ex/exrefid"
        },
        {
            "from": "http://id.d4k.dk/dataset/cdisc/sdtm/v3-4/ex",
            "to": "http://id.d4k.dk/dataset/cdisc/sdtm/v3-4/ex/exspid"
        },
        {
            "from": "http://id.d4k.dk/dataset/cdisc/sdtm/v3-4/ex",
            "to": "http://id.d4k.dk/dataset/cdisc/sdtm/v3-4/ex/exlnkid"
        },
        {
            "from": "http://id.d4k.dk/dataset/cdisc/sdtm/v3-4/ex",
            "to": "http://id.d4k.dk/dataset/cdisc/sdtm/v3-4/ex/exlnkgrp"
        },
        {
            "from": "http://id.d4k.dk/dataset/cdisc/sdtm/v3-4/ex",
            "to": "http://id.d4k.dk/dataset/cdisc/sdtm/v3-4/ex/extrt"
        },
        {
            "from": "http://id.d4k.dk/dataset/cdisc/sdtm/v3-4/ex",
            "to": "http://id.d4k.dk/dataset/cdisc/sdtm/v3-4/ex/excat"
        },
        {
            "from": "http://id.d4k.dk/dataset/cdisc/sdtm/v3-4/ex",
            "to": "http://id.d4k.dk/dataset/cdisc/sdtm/v3-4/ex/exscat"
        },
        {
            "from": "http://id.d4k.dk/dataset/cdisc/sdtm/v3-4/ex",
            "to": "http://id.d4k.dk/dataset/cdisc/sdtm/v3-4/ex/exdose"
        },
        {
            "from": "http://id.d4k.dk/dataset/cdisc/sdtm/v3-4/ex",
            "to": "http://id.d4k.dk/dataset/cdisc/sdtm/v3-4/ex/exdostxt"
        },
        {
            "from": "http://id.d4k.dk/dataset/cdisc/sdtm/v3-4/ex",
            "to": "http://id.d4k.dk/dataset/cdisc/sdtm/v3-4/ex/exdosu"
        },
        {
            "from": "http://id.d4k.dk/dataset/cdisc/sdtm/v3-4/ex",
            "to": "http://id.d4k.dk/dataset/cdisc/sdtm/v3-4/ex/exdosfrm"
        },
        {
            "from": "http://id.d4k.dk/dataset/cdisc/sdtm/v3-4/ex",
            "to": "http://id.d4k.dk/dataset/cdisc/sdtm/v3-4/ex/exdosfrq"
        },
        {
            "from": "http://id.d4k.dk/dataset/cdisc/sdtm/v3-4/ex",
            "to": "http://id.d4k.dk/dataset/cdisc/sdtm/v3-4/ex/exdosrgm"
        },
        {
            "from": "http://id.d4k.dk/dataset/cdisc/sdtm/v3-4/ex",
            "to": "http://id.d4k.dk/dataset/cdisc/sdtm/v3-4/ex/exroute"
        },
        {
            "from": "http://id.d4k.dk/dataset/cdisc/sdtm/v3-4/ex",
            "to": "http://id.d4k.dk/dataset/cdisc/sdtm/v3-4/ex/exlot"
        },
        {
            "from": "http://id.d4k.dk/dataset/cdisc/sdtm/v3-4/ex",
            "to": "http://id.d4k.dk/dataset/cdisc/sdtm/v3-4/ex/exloc"
        },
        {
            "from": "http://id.d4k.dk/dataset/cdisc/sdtm/v3-4/ex",
            "to": "http://id.d4k.dk/dataset/cdisc/sdtm/v3-4/ex/exlat"
        },
        {
            "from": "http://id.d4k.dk/dataset/cdisc/sdtm/v3-4/ex",
            "to": "http://id.d4k.dk/dataset/cdisc/sdtm/v3-4/ex/exdir"
        },
        {
            "from": "http://id.d4k.dk/dataset/cdisc/sdtm/v3-4/ex",
            "to": "http://id.d4k.dk/dataset/cdisc/sdtm/v3-4/ex/exfast"
        },
        {
            "from": "http://id.d4k.dk/dataset/cdisc/sdtm/v3-4/ex",
            "to": "http://id.d4k.dk/dataset/cdisc/sdtm/v3-4/ex/exadj"
        },
        {
            "from": "http://id.d4k.dk/dataset/cdisc/sdtm/v3-4/ex",
            "to": "http://id.d4k.dk/dataset/cdisc/sdtm/v3-4/ex/taetord"
        },
        {
            "from": "http://id.d4k.dk/dataset/cdisc/sdtm/v3-4/ex",
            "to": "http://id.d4k.dk/dataset/cdisc/sdtm/v3-4/ex/epoch"
        },
        {
            "from": "http://id.d4k.dk/dataset/cdisc/sdtm/v3-4/ex",
            "to": "http://id.d4k.dk/dataset/cdisc/sdtm/v3-4/ex/exstdtc"
        },
        {
            "from": "http://id.d4k.dk/dataset/cdisc/sdtm/v3-4/ex",
            "to": "http://id.d4k.dk/dataset/cdisc/sdtm/v3-4/ex/exendtc"
        },
        {
            "from": "http://id.d4k.dk/dataset/cdisc/sdtm/v3-4/ex",
            "to": "http://id.d4k.dk/dataset/cdisc/sdtm/v3-4/ex/exstdy"
        },
        {
            "from": "http://id.d4k.dk/dataset/cdisc/sdtm/v3-4/ex",
            "to": "http://id.d4k.dk/dataset/cdisc/sdtm/v3-4/ex/exendy"
        },
        {
            "from": "http://id.d4k.dk/dataset/cdisc/sdtm/v3-4/ex",
            "to": "http://id.d4k.dk/dataset/cdisc/sdtm/v3-4/ex/exdur"
        },
        {
            "from": "http://id.d4k.dk/dataset/cdisc/sdtm/v3-4/ex",
            "to": "http://id.d4k.dk/dataset/cdisc/sdtm/v3-4/ex/extpt"
        },
        {
            "from": "http://id.d4k.dk/dataset/cdisc/sdtm/v3-4/ex",
            "to": "http://id.d4k.dk/dataset/cdisc/sdtm/v3-4/ex/extptnum"
        },
        {
            "from": "http://id.d4k.dk/dataset/cdisc/sdtm/v3-4/ex",
            "to": "http://id.d4k.dk/dataset/cdisc/sdtm/v3-4/ex/exeltm"
        },
        {
            "from": "http://id.d4k.dk/dataset/cdisc/sdtm/v3-4/ex",
            "to": "http://id.d4k.dk/dataset/cdisc/sdtm/v3-4/ex/extptref"
        },
        {
            "from": "http://id.d4k.dk/dataset/cdisc/sdtm/v3-4/ex",
            "to": "http://id.d4k.dk/dataset/cdisc/sdtm/v3-4/ex/exrftdtc"
        },
        {
            "from": "http://id.d4k.dk/dataset/cdisc/sdtm/v3-4/ml",
            "to": "http://id.d4k.dk/dataset/cdisc/sdtm/v3-4/ml/studyid"
        },
        {
            "from": "http://id.d4k.dk/dataset/cdisc/sdtm/v3-4/ml",
            "to": "http://id.d4k.dk/dataset/cdisc/sdtm/v3-4/ml/domain"
        },
        {
            "from": "http://id.d4k.dk/dataset/cdisc/sdtm/v3-4/ml",
            "to": "http://id.d4k.dk/dataset/cdisc/sdtm/v3-4/ml/usubjid"
        },
        {
            "from": "http://id.d4k.dk/dataset/cdisc/sdtm/v3-4/ml",
            "to": "http://id.d4k.dk/dataset/cdisc/sdtm/v3-4/ml/mlseq"
        },
        {
            "from": "http://id.d4k.dk/dataset/cdisc/sdtm/v3-4/ml",
            "to": "http://id.d4k.dk/dataset/cdisc/sdtm/v3-4/ml/mlgrpid"
        },
        {
            "from": "http://id.d4k.dk/dataset/cdisc/sdtm/v3-4/ml",
            "to": "http://id.d4k.dk/dataset/cdisc/sdtm/v3-4/ml/mlspid"
        },
        {
            "from": "http://id.d4k.dk/dataset/cdisc/sdtm/v3-4/ml",
            "to": "http://id.d4k.dk/dataset/cdisc/sdtm/v3-4/ml/mltrt"
        },
        {
            "from": "http://id.d4k.dk/dataset/cdisc/sdtm/v3-4/ml",
            "to": "http://id.d4k.dk/dataset/cdisc/sdtm/v3-4/ml/mlcat"
        },
        {
            "from": "http://id.d4k.dk/dataset/cdisc/sdtm/v3-4/ml",
            "to": "http://id.d4k.dk/dataset/cdisc/sdtm/v3-4/ml/mlscat"
        },
        {
            "from": "http://id.d4k.dk/dataset/cdisc/sdtm/v3-4/ml",
            "to": "http://id.d4k.dk/dataset/cdisc/sdtm/v3-4/ml/mlpresp"
        },
        {
            "from": "http://id.d4k.dk/dataset/cdisc/sdtm/v3-4/ml",
            "to": "http://id.d4k.dk/dataset/cdisc/sdtm/v3-4/ml/mloccur"
        },
        {
            "from": "http://id.d4k.dk/dataset/cdisc/sdtm/v3-4/ml",
            "to": "http://id.d4k.dk/dataset/cdisc/sdtm/v3-4/ml/mlstat"
        },
        {
            "from": "http://id.d4k.dk/dataset/cdisc/sdtm/v3-4/ml",
            "to": "http://id.d4k.dk/dataset/cdisc/sdtm/v3-4/ml/mlreasnd"
        },
        {
            "from": "http://id.d4k.dk/dataset/cdisc/sdtm/v3-4/ml",
            "to": "http://id.d4k.dk/dataset/cdisc/sdtm/v3-4/ml/mldose"
        },
        {
            "from": "http://id.d4k.dk/dataset/cdisc/sdtm/v3-4/ml",
            "to": "http://id.d4k.dk/dataset/cdisc/sdtm/v3-4/ml/mldostxt"
        },
        {
            "from": "http://id.d4k.dk/dataset/cdisc/sdtm/v3-4/ml",
            "to": "http://id.d4k.dk/dataset/cdisc/sdtm/v3-4/ml/mldosu"
        },
        {
            "from": "http://id.d4k.dk/dataset/cdisc/sdtm/v3-4/ml",
            "to": "http://id.d4k.dk/dataset/cdisc/sdtm/v3-4/ml/mldosfrm"
        },
        {
            "from": "http://id.d4k.dk/dataset/cdisc/sdtm/v3-4/ml",
            "to": "http://id.d4k.dk/dataset/cdisc/sdtm/v3-4/ml/visitnum"
        },
        {
            "from": "http://id.d4k.dk/dataset/cdisc/sdtm/v3-4/ml",
            "to": "http://id.d4k.dk/dataset/cdisc/sdtm/v3-4/ml/visit"
        },
        {
            "from": "http://id.d4k.dk/dataset/cdisc/sdtm/v3-4/ml",
            "to": "http://id.d4k.dk/dataset/cdisc/sdtm/v3-4/ml/visitdy"
        },
        {
            "from": "http://id.d4k.dk/dataset/cdisc/sdtm/v3-4/ml",
            "to": "http://id.d4k.dk/dataset/cdisc/sdtm/v3-4/ml/taetord"
        },
        {
            "from": "http://id.d4k.dk/dataset/cdisc/sdtm/v3-4/ml",
            "to": "http://id.d4k.dk/dataset/cdisc/sdtm/v3-4/ml/epoch"
        },
        {
            "from": "http://id.d4k.dk/dataset/cdisc/sdtm/v3-4/ml",
            "to": "http://id.d4k.dk/dataset/cdisc/sdtm/v3-4/ml/mldtc"
        },
        {
            "from": "http://id.d4k.dk/dataset/cdisc/sdtm/v3-4/ml",
            "to": "http://id.d4k.dk/dataset/cdisc/sdtm/v3-4/ml/mlstdtc"
        },
        {
            "from": "http://id.d4k.dk/dataset/cdisc/sdtm/v3-4/ml",
            "to": "http://id.d4k.dk/dataset/cdisc/sdtm/v3-4/ml/mlendtc"
        },
        {
            "from": "http://id.d4k.dk/dataset/cdisc/sdtm/v3-4/ml",
            "to": "http://id.d4k.dk/dataset/cdisc/sdtm/v3-4/ml/mldy"
        },
        {
            "from": "http://id.d4k.dk/dataset/cdisc/sdtm/v3-4/ml",
            "to": "http://id.d4k.dk/dataset/cdisc/sdtm/v3-4/ml/mlstdy"
        },
        {
            "from": "http://id.d4k.dk/dataset/cdisc/sdtm/v3-4/ml",
            "to": "http://id.d4k.dk/dataset/cdisc/sdtm/v3-4/ml/mlendy"
        },
        {
            "from": "http://id.d4k.dk/dataset/cdisc/sdtm/v3-4/ml",
            "to": "http://id.d4k.dk/dataset/cdisc/sdtm/v3-4/ml/mldur"
        },
        {
            "from": "http://id.d4k.dk/dataset/cdisc/sdtm/v3-4/ml",
            "to": "http://id.d4k.dk/dataset/cdisc/sdtm/v3-4/ml/mltpt"
        },
        {
            "from": "http://id.d4k.dk/dataset/cdisc/sdtm/v3-4/ml",
            "to": "http://id.d4k.dk/dataset/cdisc/sdtm/v3-4/ml/mltptnum"
        },
        {
            "from": "http://id.d4k.dk/dataset/cdisc/sdtm/v3-4/ml",
            "to": "http://id.d4k.dk/dataset/cdisc/sdtm/v3-4/ml/mleltm"
        },
        {
            "from": "http://id.d4k.dk/dataset/cdisc/sdtm/v3-4/ml",
            "to": "http://id.d4k.dk/dataset/cdisc/sdtm/v3-4/ml/mltptref"
        },
        {
            "from": "http://id.d4k.dk/dataset/cdisc/sdtm/v3-4/ml",
            "to": "http://id.d4k.dk/dataset/cdisc/sdtm/v3-4/ml/mlrftdtc"
        },
        {
            "from": "http://id.d4k.dk/dataset/cdisc/sdtm/v3-4/ml",
            "to": "http://id.d4k.dk/dataset/cdisc/sdtm/v3-4/ml/mids"
        },
        {
            "from": "http://id.d4k.dk/dataset/cdisc/sdtm/v3-4/ml",
            "to": "http://id.d4k.dk/dataset/cdisc/sdtm/v3-4/ml/relmids"
        },
        {
            "from": "http://id.d4k.dk/dataset/cdisc/sdtm/v3-4/ml",
            "to": "http://id.d4k.dk/dataset/cdisc/sdtm/v3-4/ml/midsdtc"
        },
        {
            "from": "http://id.d4k.dk/dataset/cdisc/sdtm/v3-4/pr",
            "to": "http://id.d4k.dk/dataset/cdisc/sdtm/v3-4/pr/studyid"
        },
        {
            "from": "http://id.d4k.dk/dataset/cdisc/sdtm/v3-4/pr",
            "to": "http://id.d4k.dk/dataset/cdisc/sdtm/v3-4/pr/domain"
        },
        {
            "from": "http://id.d4k.dk/dataset/cdisc/sdtm/v3-4/pr",
            "to": "http://id.d4k.dk/dataset/cdisc/sdtm/v3-4/pr/usubjid"
        },
        {
            "from": "http://id.d4k.dk/dataset/cdisc/sdtm/v3-4/pr",
            "to": "http://id.d4k.dk/dataset/cdisc/sdtm/v3-4/pr/prseq"
        },
        {
            "from": "http://id.d4k.dk/dataset/cdisc/sdtm/v3-4/pr",
            "to": "http://id.d4k.dk/dataset/cdisc/sdtm/v3-4/pr/prgrpid"
        },
        {
            "from": "http://id.d4k.dk/dataset/cdisc/sdtm/v3-4/pr",
            "to": "http://id.d4k.dk/dataset/cdisc/sdtm/v3-4/pr/prspid"
        },
        {
            "from": "http://id.d4k.dk/dataset/cdisc/sdtm/v3-4/pr",
            "to": "http://id.d4k.dk/dataset/cdisc/sdtm/v3-4/pr/prlnkid"
        },
        {
            "from": "http://id.d4k.dk/dataset/cdisc/sdtm/v3-4/pr",
            "to": "http://id.d4k.dk/dataset/cdisc/sdtm/v3-4/pr/prlnkgrp"
        },
        {
            "from": "http://id.d4k.dk/dataset/cdisc/sdtm/v3-4/pr",
            "to": "http://id.d4k.dk/dataset/cdisc/sdtm/v3-4/pr/prtrt"
        },
        {
            "from": "http://id.d4k.dk/dataset/cdisc/sdtm/v3-4/pr",
            "to": "http://id.d4k.dk/dataset/cdisc/sdtm/v3-4/pr/prdecod"
        },
        {
            "from": "http://id.d4k.dk/dataset/cdisc/sdtm/v3-4/pr",
            "to": "http://id.d4k.dk/dataset/cdisc/sdtm/v3-4/pr/prcat"
        },
        {
            "from": "http://id.d4k.dk/dataset/cdisc/sdtm/v3-4/pr",
            "to": "http://id.d4k.dk/dataset/cdisc/sdtm/v3-4/pr/prscat"
        },
        {
            "from": "http://id.d4k.dk/dataset/cdisc/sdtm/v3-4/pr",
            "to": "http://id.d4k.dk/dataset/cdisc/sdtm/v3-4/pr/prpresp"
        },
        {
            "from": "http://id.d4k.dk/dataset/cdisc/sdtm/v3-4/pr",
            "to": "http://id.d4k.dk/dataset/cdisc/sdtm/v3-4/pr/proccur"
        },
        {
            "from": "http://id.d4k.dk/dataset/cdisc/sdtm/v3-4/pr",
            "to": "http://id.d4k.dk/dataset/cdisc/sdtm/v3-4/pr/prindc"
        },
        {
            "from": "http://id.d4k.dk/dataset/cdisc/sdtm/v3-4/pr",
            "to": "http://id.d4k.dk/dataset/cdisc/sdtm/v3-4/pr/prdose"
        },
        {
            "from": "http://id.d4k.dk/dataset/cdisc/sdtm/v3-4/pr",
            "to": "http://id.d4k.dk/dataset/cdisc/sdtm/v3-4/pr/prdostxt"
        },
        {
            "from": "http://id.d4k.dk/dataset/cdisc/sdtm/v3-4/pr",
            "to": "http://id.d4k.dk/dataset/cdisc/sdtm/v3-4/pr/prdosu"
        },
        {
            "from": "http://id.d4k.dk/dataset/cdisc/sdtm/v3-4/pr",
            "to": "http://id.d4k.dk/dataset/cdisc/sdtm/v3-4/pr/prdosfrm"
        },
        {
            "from": "http://id.d4k.dk/dataset/cdisc/sdtm/v3-4/pr",
            "to": "http://id.d4k.dk/dataset/cdisc/sdtm/v3-4/pr/prdosfrq"
        },
        {
            "from": "http://id.d4k.dk/dataset/cdisc/sdtm/v3-4/pr",
            "to": "http://id.d4k.dk/dataset/cdisc/sdtm/v3-4/pr/prdosrgm"
        },
        {
            "from": "http://id.d4k.dk/dataset/cdisc/sdtm/v3-4/pr",
            "to": "http://id.d4k.dk/dataset/cdisc/sdtm/v3-4/pr/prroute"
        },
        {
            "from": "http://id.d4k.dk/dataset/cdisc/sdtm/v3-4/pr",
            "to": "http://id.d4k.dk/dataset/cdisc/sdtm/v3-4/pr/prloc"
        },
        {
            "from": "http://id.d4k.dk/dataset/cdisc/sdtm/v3-4/pr",
            "to": "http://id.d4k.dk/dataset/cdisc/sdtm/v3-4/pr/prlat"
        },
        {
            "from": "http://id.d4k.dk/dataset/cdisc/sdtm/v3-4/pr",
            "to": "http://id.d4k.dk/dataset/cdisc/sdtm/v3-4/pr/prdir"
        },
        {
            "from": "http://id.d4k.dk/dataset/cdisc/sdtm/v3-4/pr",
            "to": "http://id.d4k.dk/dataset/cdisc/sdtm/v3-4/pr/prportot"
        },
        {
            "from": "http://id.d4k.dk/dataset/cdisc/sdtm/v3-4/pr",
            "to": "http://id.d4k.dk/dataset/cdisc/sdtm/v3-4/pr/visitnum"
        },
        {
            "from": "http://id.d4k.dk/dataset/cdisc/sdtm/v3-4/pr",
            "to": "http://id.d4k.dk/dataset/cdisc/sdtm/v3-4/pr/visit"
        },
        {
            "from": "http://id.d4k.dk/dataset/cdisc/sdtm/v3-4/pr",
            "to": "http://id.d4k.dk/dataset/cdisc/sdtm/v3-4/pr/visitdy"
        },
        {
            "from": "http://id.d4k.dk/dataset/cdisc/sdtm/v3-4/pr",
            "to": "http://id.d4k.dk/dataset/cdisc/sdtm/v3-4/pr/taetord"
        },
        {
            "from": "http://id.d4k.dk/dataset/cdisc/sdtm/v3-4/pr",
            "to": "http://id.d4k.dk/dataset/cdisc/sdtm/v3-4/pr/epoch"
        },
        {
            "from": "http://id.d4k.dk/dataset/cdisc/sdtm/v3-4/pr",
            "to": "http://id.d4k.dk/dataset/cdisc/sdtm/v3-4/pr/prstdtc"
        },
        {
            "from": "http://id.d4k.dk/dataset/cdisc/sdtm/v3-4/pr",
            "to": "http://id.d4k.dk/dataset/cdisc/sdtm/v3-4/pr/prendtc"
        },
        {
            "from": "http://id.d4k.dk/dataset/cdisc/sdtm/v3-4/pr",
            "to": "http://id.d4k.dk/dataset/cdisc/sdtm/v3-4/pr/prstdy"
        },
        {
            "from": "http://id.d4k.dk/dataset/cdisc/sdtm/v3-4/pr",
            "to": "http://id.d4k.dk/dataset/cdisc/sdtm/v3-4/pr/prendy"
        },
        {
            "from": "http://id.d4k.dk/dataset/cdisc/sdtm/v3-4/pr",
            "to": "http://id.d4k.dk/dataset/cdisc/sdtm/v3-4/pr/prdur"
        },
        {
            "from": "http://id.d4k.dk/dataset/cdisc/sdtm/v3-4/pr",
            "to": "http://id.d4k.dk/dataset/cdisc/sdtm/v3-4/pr/prtpt"
        },
        {
            "from": "http://id.d4k.dk/dataset/cdisc/sdtm/v3-4/pr",
            "to": "http://id.d4k.dk/dataset/cdisc/sdtm/v3-4/pr/prtptnum"
        },
        {
            "from": "http://id.d4k.dk/dataset/cdisc/sdtm/v3-4/pr",
            "to": "http://id.d4k.dk/dataset/cdisc/sdtm/v3-4/pr/preltm"
        },
        {
            "from": "http://id.d4k.dk/dataset/cdisc/sdtm/v3-4/pr",
            "to": "http://id.d4k.dk/dataset/cdisc/sdtm/v3-4/pr/prtptref"
        },
        {
            "from": "http://id.d4k.dk/dataset/cdisc/sdtm/v3-4/pr",
            "to": "http://id.d4k.dk/dataset/cdisc/sdtm/v3-4/pr/prrftdtc"
        },
        {
            "from": "http://id.d4k.dk/dataset/cdisc/sdtm/v3-4/pr",
            "to": "http://id.d4k.dk/dataset/cdisc/sdtm/v3-4/pr/prstrtpt"
        },
        {
            "from": "http://id.d4k.dk/dataset/cdisc/sdtm/v3-4/pr",
            "to": "http://id.d4k.dk/dataset/cdisc/sdtm/v3-4/pr/prsttpt"
        },
        {
            "from": "http://id.d4k.dk/dataset/cdisc/sdtm/v3-4/pr",
            "to": "http://id.d4k.dk/dataset/cdisc/sdtm/v3-4/pr/prenrtpt"
        },
        {
            "from": "http://id.d4k.dk/dataset/cdisc/sdtm/v3-4/pr",
            "to": "http://id.d4k.dk/dataset/cdisc/sdtm/v3-4/pr/prentpt"
        },
        {
            "from": "http://id.d4k.dk/dataset/cdisc/sdtm/v3-4/su",
            "to": "http://id.d4k.dk/dataset/cdisc/sdtm/v3-4/su/studyid"
        },
        {
            "from": "http://id.d4k.dk/dataset/cdisc/sdtm/v3-4/su",
            "to": "http://id.d4k.dk/dataset/cdisc/sdtm/v3-4/su/domain"
        },
        {
            "from": "http://id.d4k.dk/dataset/cdisc/sdtm/v3-4/su",
            "to": "http://id.d4k.dk/dataset/cdisc/sdtm/v3-4/su/usubjid"
        },
        {
            "from": "http://id.d4k.dk/dataset/cdisc/sdtm/v3-4/su",
            "to": "http://id.d4k.dk/dataset/cdisc/sdtm/v3-4/su/suseq"
        },
        {
            "from": "http://id.d4k.dk/dataset/cdisc/sdtm/v3-4/su",
            "to": "http://id.d4k.dk/dataset/cdisc/sdtm/v3-4/su/sugrpid"
        },
        {
            "from": "http://id.d4k.dk/dataset/cdisc/sdtm/v3-4/su",
            "to": "http://id.d4k.dk/dataset/cdisc/sdtm/v3-4/su/suspid"
        },
        {
            "from": "http://id.d4k.dk/dataset/cdisc/sdtm/v3-4/su",
            "to": "http://id.d4k.dk/dataset/cdisc/sdtm/v3-4/su/sutrt"
        },
        {
            "from": "http://id.d4k.dk/dataset/cdisc/sdtm/v3-4/su",
            "to": "http://id.d4k.dk/dataset/cdisc/sdtm/v3-4/su/sumodify"
        },
        {
            "from": "http://id.d4k.dk/dataset/cdisc/sdtm/v3-4/su",
            "to": "http://id.d4k.dk/dataset/cdisc/sdtm/v3-4/su/sudecod"
        },
        {
            "from": "http://id.d4k.dk/dataset/cdisc/sdtm/v3-4/su",
            "to": "http://id.d4k.dk/dataset/cdisc/sdtm/v3-4/su/sucat"
        },
        {
            "from": "http://id.d4k.dk/dataset/cdisc/sdtm/v3-4/su",
            "to": "http://id.d4k.dk/dataset/cdisc/sdtm/v3-4/su/suscat"
        },
        {
            "from": "http://id.d4k.dk/dataset/cdisc/sdtm/v3-4/su",
            "to": "http://id.d4k.dk/dataset/cdisc/sdtm/v3-4/su/supresp"
        },
        {
            "from": "http://id.d4k.dk/dataset/cdisc/sdtm/v3-4/su",
            "to": "http://id.d4k.dk/dataset/cdisc/sdtm/v3-4/su/suoccur"
        },
        {
            "from": "http://id.d4k.dk/dataset/cdisc/sdtm/v3-4/su",
            "to": "http://id.d4k.dk/dataset/cdisc/sdtm/v3-4/su/sustat"
        },
        {
            "from": "http://id.d4k.dk/dataset/cdisc/sdtm/v3-4/su",
            "to": "http://id.d4k.dk/dataset/cdisc/sdtm/v3-4/su/sureasnd"
        },
        {
            "from": "http://id.d4k.dk/dataset/cdisc/sdtm/v3-4/su",
            "to": "http://id.d4k.dk/dataset/cdisc/sdtm/v3-4/su/suclas"
        },
        {
            "from": "http://id.d4k.dk/dataset/cdisc/sdtm/v3-4/su",
            "to": "http://id.d4k.dk/dataset/cdisc/sdtm/v3-4/su/suclascd"
        },
        {
            "from": "http://id.d4k.dk/dataset/cdisc/sdtm/v3-4/su",
            "to": "http://id.d4k.dk/dataset/cdisc/sdtm/v3-4/su/sudose"
        },
        {
            "from": "http://id.d4k.dk/dataset/cdisc/sdtm/v3-4/su",
            "to": "http://id.d4k.dk/dataset/cdisc/sdtm/v3-4/su/sudostxt"
        },
        {
            "from": "http://id.d4k.dk/dataset/cdisc/sdtm/v3-4/su",
            "to": "http://id.d4k.dk/dataset/cdisc/sdtm/v3-4/su/sudosu"
        },
        {
            "from": "http://id.d4k.dk/dataset/cdisc/sdtm/v3-4/su",
            "to": "http://id.d4k.dk/dataset/cdisc/sdtm/v3-4/su/sudosfrm"
        },
        {
            "from": "http://id.d4k.dk/dataset/cdisc/sdtm/v3-4/su",
            "to": "http://id.d4k.dk/dataset/cdisc/sdtm/v3-4/su/sudosfrq"
        },
        {
            "from": "http://id.d4k.dk/dataset/cdisc/sdtm/v3-4/su",
            "to": "http://id.d4k.dk/dataset/cdisc/sdtm/v3-4/su/sudostot"
        },
        {
            "from": "http://id.d4k.dk/dataset/cdisc/sdtm/v3-4/su",
            "to": "http://id.d4k.dk/dataset/cdisc/sdtm/v3-4/su/suroute"
        },
        {
            "from": "http://id.d4k.dk/dataset/cdisc/sdtm/v3-4/su",
            "to": "http://id.d4k.dk/dataset/cdisc/sdtm/v3-4/su/taetord"
        },
        {
            "from": "http://id.d4k.dk/dataset/cdisc/sdtm/v3-4/su",
            "to": "http://id.d4k.dk/dataset/cdisc/sdtm/v3-4/su/epoch"
        },
        {
            "from": "http://id.d4k.dk/dataset/cdisc/sdtm/v3-4/su",
            "to": "http://id.d4k.dk/dataset/cdisc/sdtm/v3-4/su/sustdtc"
        },
        {
            "from": "http://id.d4k.dk/dataset/cdisc/sdtm/v3-4/su",
            "to": "http://id.d4k.dk/dataset/cdisc/sdtm/v3-4/su/suendtc"
        },
        {
            "from": "http://id.d4k.dk/dataset/cdisc/sdtm/v3-4/su",
            "to": "http://id.d4k.dk/dataset/cdisc/sdtm/v3-4/su/sustdy"
        },
        {
            "from": "http://id.d4k.dk/dataset/cdisc/sdtm/v3-4/su",
            "to": "http://id.d4k.dk/dataset/cdisc/sdtm/v3-4/su/suendy"
        },
        {
            "from": "http://id.d4k.dk/dataset/cdisc/sdtm/v3-4/su",
            "to": "http://id.d4k.dk/dataset/cdisc/sdtm/v3-4/su/sudur"
        },
        {
            "from": "http://id.d4k.dk/dataset/cdisc/sdtm/v3-4/su",
            "to": "http://id.d4k.dk/dataset/cdisc/sdtm/v3-4/su/sustrf"
        },
        {
            "from": "http://id.d4k.dk/dataset/cdisc/sdtm/v3-4/su",
            "to": "http://id.d4k.dk/dataset/cdisc/sdtm/v3-4/su/suenrf"
        },
        {
            "from": "http://id.d4k.dk/dataset/cdisc/sdtm/v3-4/su",
            "to": "http://id.d4k.dk/dataset/cdisc/sdtm/v3-4/su/sustrtpt"
        },
        {
            "from": "http://id.d4k.dk/dataset/cdisc/sdtm/v3-4/su",
            "to": "http://id.d4k.dk/dataset/cdisc/sdtm/v3-4/su/susttpt"
        },
        {
            "from": "http://id.d4k.dk/dataset/cdisc/sdtm/v3-4/su",
            "to": "http://id.d4k.dk/dataset/cdisc/sdtm/v3-4/su/suenrtpt"
        },
        {
            "from": "http://id.d4k.dk/dataset/cdisc/sdtm/v3-4/su",
            "to": "http://id.d4k.dk/dataset/cdisc/sdtm/v3-4/su/suentpt"
        },
        {
            "from": "http://id.d4k.dk/dataset/cdisc/sdtm/v3-4/ae",
            "to": "http://id.d4k.dk/dataset/cdisc/sdtm/v3-4/ae/studyid"
        },
        {
            "from": "http://id.d4k.dk/dataset/cdisc/sdtm/v3-4/ae",
            "to": "http://id.d4k.dk/dataset/cdisc/sdtm/v3-4/ae/domain"
        },
        {
            "from": "http://id.d4k.dk/dataset/cdisc/sdtm/v3-4/ae",
            "to": "http://id.d4k.dk/dataset/cdisc/sdtm/v3-4/ae/usubjid"
        },
        {
            "from": "http://id.d4k.dk/dataset/cdisc/sdtm/v3-4/ae",
            "to": "http://id.d4k.dk/dataset/cdisc/sdtm/v3-4/ae/spdevid"
        },
        {
            "from": "http://id.d4k.dk/dataset/cdisc/sdtm/v3-4/ae",
            "to": "http://id.d4k.dk/dataset/cdisc/sdtm/v3-4/ae/aeseq"
        },
        {
            "from": "http://id.d4k.dk/dataset/cdisc/sdtm/v3-4/ae",
            "to": "http://id.d4k.dk/dataset/cdisc/sdtm/v3-4/ae/aegrpid"
        },
        {
            "from": "http://id.d4k.dk/dataset/cdisc/sdtm/v3-4/ae",
            "to": "http://id.d4k.dk/dataset/cdisc/sdtm/v3-4/ae/aerefid"
        },
        {
            "from": "http://id.d4k.dk/dataset/cdisc/sdtm/v3-4/ae",
            "to": "http://id.d4k.dk/dataset/cdisc/sdtm/v3-4/ae/aespid"
        },
        {
            "from": "http://id.d4k.dk/dataset/cdisc/sdtm/v3-4/ae",
            "to": "http://id.d4k.dk/dataset/cdisc/sdtm/v3-4/ae/aeterm"
        },
        {
            "from": "http://id.d4k.dk/dataset/cdisc/sdtm/v3-4/ae",
            "to": "http://id.d4k.dk/dataset/cdisc/sdtm/v3-4/ae/aemodify"
        },
        {
            "from": "http://id.d4k.dk/dataset/cdisc/sdtm/v3-4/ae",
            "to": "http://id.d4k.dk/dataset/cdisc/sdtm/v3-4/ae/aellt"
        },
        {
            "from": "http://id.d4k.dk/dataset/cdisc/sdtm/v3-4/ae",
            "to": "http://id.d4k.dk/dataset/cdisc/sdtm/v3-4/ae/aelltcd"
        },
        {
            "from": "http://id.d4k.dk/dataset/cdisc/sdtm/v3-4/ae",
            "to": "http://id.d4k.dk/dataset/cdisc/sdtm/v3-4/ae/aedecod"
        },
        {
            "from": "http://id.d4k.dk/dataset/cdisc/sdtm/v3-4/ae",
            "to": "http://id.d4k.dk/dataset/cdisc/sdtm/v3-4/ae/aeptcd"
        },
        {
            "from": "http://id.d4k.dk/dataset/cdisc/sdtm/v3-4/ae",
            "to": "http://id.d4k.dk/dataset/cdisc/sdtm/v3-4/ae/aehlt"
        },
        {
            "from": "http://id.d4k.dk/dataset/cdisc/sdtm/v3-4/ae",
            "to": "http://id.d4k.dk/dataset/cdisc/sdtm/v3-4/ae/aehltcd"
        },
        {
            "from": "http://id.d4k.dk/dataset/cdisc/sdtm/v3-4/ae",
            "to": "http://id.d4k.dk/dataset/cdisc/sdtm/v3-4/ae/aehlgt"
        },
        {
            "from": "http://id.d4k.dk/dataset/cdisc/sdtm/v3-4/ae",
            "to": "http://id.d4k.dk/dataset/cdisc/sdtm/v3-4/ae/aehlgtcd"
        },
        {
            "from": "http://id.d4k.dk/dataset/cdisc/sdtm/v3-4/ae",
            "to": "http://id.d4k.dk/dataset/cdisc/sdtm/v3-4/ae/aecat"
        },
        {
            "from": "http://id.d4k.dk/dataset/cdisc/sdtm/v3-4/ae",
            "to": "http://id.d4k.dk/dataset/cdisc/sdtm/v3-4/ae/aescat"
        },
        {
            "from": "http://id.d4k.dk/dataset/cdisc/sdtm/v3-4/ae",
            "to": "http://id.d4k.dk/dataset/cdisc/sdtm/v3-4/ae/aepresp"
        },
        {
            "from": "http://id.d4k.dk/dataset/cdisc/sdtm/v3-4/ae",
            "to": "http://id.d4k.dk/dataset/cdisc/sdtm/v3-4/ae/aebodsys"
        },
        {
            "from": "http://id.d4k.dk/dataset/cdisc/sdtm/v3-4/ae",
            "to": "http://id.d4k.dk/dataset/cdisc/sdtm/v3-4/ae/aebdsycd"
        },
        {
            "from": "http://id.d4k.dk/dataset/cdisc/sdtm/v3-4/ae",
            "to": "http://id.d4k.dk/dataset/cdisc/sdtm/v3-4/ae/aesoc"
        },
        {
            "from": "http://id.d4k.dk/dataset/cdisc/sdtm/v3-4/ae",
            "to": "http://id.d4k.dk/dataset/cdisc/sdtm/v3-4/ae/aesoccd"
        },
        {
            "from": "http://id.d4k.dk/dataset/cdisc/sdtm/v3-4/ae",
            "to": "http://id.d4k.dk/dataset/cdisc/sdtm/v3-4/ae/aeloc"
        },
        {
            "from": "http://id.d4k.dk/dataset/cdisc/sdtm/v3-4/ae",
            "to": "http://id.d4k.dk/dataset/cdisc/sdtm/v3-4/ae/aesev"
        },
        {
            "from": "http://id.d4k.dk/dataset/cdisc/sdtm/v3-4/ae",
            "to": "http://id.d4k.dk/dataset/cdisc/sdtm/v3-4/ae/aeser"
        },
        {
            "from": "http://id.d4k.dk/dataset/cdisc/sdtm/v3-4/ae",
            "to": "http://id.d4k.dk/dataset/cdisc/sdtm/v3-4/ae/aeacn"
        },
        {
            "from": "http://id.d4k.dk/dataset/cdisc/sdtm/v3-4/ae",
            "to": "http://id.d4k.dk/dataset/cdisc/sdtm/v3-4/ae/aeacnoth"
        },
        {
            "from": "http://id.d4k.dk/dataset/cdisc/sdtm/v3-4/ae",
            "to": "http://id.d4k.dk/dataset/cdisc/sdtm/v3-4/ae/aeacndev"
        },
        {
            "from": "http://id.d4k.dk/dataset/cdisc/sdtm/v3-4/ae",
            "to": "http://id.d4k.dk/dataset/cdisc/sdtm/v3-4/ae/aerel"
        },
        {
            "from": "http://id.d4k.dk/dataset/cdisc/sdtm/v3-4/ae",
            "to": "http://id.d4k.dk/dataset/cdisc/sdtm/v3-4/ae/aerldev"
        },
        {
            "from": "http://id.d4k.dk/dataset/cdisc/sdtm/v3-4/ae",
            "to": "http://id.d4k.dk/dataset/cdisc/sdtm/v3-4/ae/aerelnst"
        },
        {
            "from": "http://id.d4k.dk/dataset/cdisc/sdtm/v3-4/ae",
            "to": "http://id.d4k.dk/dataset/cdisc/sdtm/v3-4/ae/aepatt"
        },
        {
            "from": "http://id.d4k.dk/dataset/cdisc/sdtm/v3-4/ae",
            "to": "http://id.d4k.dk/dataset/cdisc/sdtm/v3-4/ae/aeout"
        },
        {
            "from": "http://id.d4k.dk/dataset/cdisc/sdtm/v3-4/ae",
            "to": "http://id.d4k.dk/dataset/cdisc/sdtm/v3-4/ae/aescan"
        },
        {
            "from": "http://id.d4k.dk/dataset/cdisc/sdtm/v3-4/ae",
            "to": "http://id.d4k.dk/dataset/cdisc/sdtm/v3-4/ae/aescong"
        },
        {
            "from": "http://id.d4k.dk/dataset/cdisc/sdtm/v3-4/ae",
            "to": "http://id.d4k.dk/dataset/cdisc/sdtm/v3-4/ae/aesdisab"
        },
        {
            "from": "http://id.d4k.dk/dataset/cdisc/sdtm/v3-4/ae",
            "to": "http://id.d4k.dk/dataset/cdisc/sdtm/v3-4/ae/aesdth"
        },
        {
            "from": "http://id.d4k.dk/dataset/cdisc/sdtm/v3-4/ae",
            "to": "http://id.d4k.dk/dataset/cdisc/sdtm/v3-4/ae/aeshosp"
        },
        {
            "from": "http://id.d4k.dk/dataset/cdisc/sdtm/v3-4/ae",
            "to": "http://id.d4k.dk/dataset/cdisc/sdtm/v3-4/ae/aeslife"
        },
        {
            "from": "http://id.d4k.dk/dataset/cdisc/sdtm/v3-4/ae",
            "to": "http://id.d4k.dk/dataset/cdisc/sdtm/v3-4/ae/aesod"
        },
        {
            "from": "http://id.d4k.dk/dataset/cdisc/sdtm/v3-4/ae",
            "to": "http://id.d4k.dk/dataset/cdisc/sdtm/v3-4/ae/aesmie"
        },
        {
            "from": "http://id.d4k.dk/dataset/cdisc/sdtm/v3-4/ae",
            "to": "http://id.d4k.dk/dataset/cdisc/sdtm/v3-4/ae/aesintv"
        },
        {
            "from": "http://id.d4k.dk/dataset/cdisc/sdtm/v3-4/ae",
            "to": "http://id.d4k.dk/dataset/cdisc/sdtm/v3-4/ae/aeunant"
        },
        {
            "from": "http://id.d4k.dk/dataset/cdisc/sdtm/v3-4/ae",
            "to": "http://id.d4k.dk/dataset/cdisc/sdtm/v3-4/ae/aerlprt"
        },
        {
            "from": "http://id.d4k.dk/dataset/cdisc/sdtm/v3-4/ae",
            "to": "http://id.d4k.dk/dataset/cdisc/sdtm/v3-4/ae/aerlprc"
        },
        {
            "from": "http://id.d4k.dk/dataset/cdisc/sdtm/v3-4/ae",
            "to": "http://id.d4k.dk/dataset/cdisc/sdtm/v3-4/ae/aecontrt"
        },
        {
            "from": "http://id.d4k.dk/dataset/cdisc/sdtm/v3-4/ae",
            "to": "http://id.d4k.dk/dataset/cdisc/sdtm/v3-4/ae/aetoxgr"
        },
        {
            "from": "http://id.d4k.dk/dataset/cdisc/sdtm/v3-4/ae",
            "to": "http://id.d4k.dk/dataset/cdisc/sdtm/v3-4/ae/taetord"
        },
        {
            "from": "http://id.d4k.dk/dataset/cdisc/sdtm/v3-4/ae",
            "to": "http://id.d4k.dk/dataset/cdisc/sdtm/v3-4/ae/epoch"
        },
        {
            "from": "http://id.d4k.dk/dataset/cdisc/sdtm/v3-4/ae",
            "to": "http://id.d4k.dk/dataset/cdisc/sdtm/v3-4/ae/aestdtc"
        },
        {
            "from": "http://id.d4k.dk/dataset/cdisc/sdtm/v3-4/ae",
            "to": "http://id.d4k.dk/dataset/cdisc/sdtm/v3-4/ae/aeendtc"
        },
        {
            "from": "http://id.d4k.dk/dataset/cdisc/sdtm/v3-4/ae",
            "to": "http://id.d4k.dk/dataset/cdisc/sdtm/v3-4/ae/aestdy"
        },
        {
            "from": "http://id.d4k.dk/dataset/cdisc/sdtm/v3-4/ae",
            "to": "http://id.d4k.dk/dataset/cdisc/sdtm/v3-4/ae/aeendy"
        },
        {
            "from": "http://id.d4k.dk/dataset/cdisc/sdtm/v3-4/ae",
            "to": "http://id.d4k.dk/dataset/cdisc/sdtm/v3-4/ae/aedur"
        },
        {
            "from": "http://id.d4k.dk/dataset/cdisc/sdtm/v3-4/ae",
            "to": "http://id.d4k.dk/dataset/cdisc/sdtm/v3-4/ae/aeenrf"
        },
        {
            "from": "http://id.d4k.dk/dataset/cdisc/sdtm/v3-4/ae",
            "to": "http://id.d4k.dk/dataset/cdisc/sdtm/v3-4/ae/aeenrtpt"
        },
        {
            "from": "http://id.d4k.dk/dataset/cdisc/sdtm/v3-4/ae",
            "to": "http://id.d4k.dk/dataset/cdisc/sdtm/v3-4/ae/aeentpt"
        },
        {
            "from": "http://id.d4k.dk/dataset/cdisc/sdtm/v3-4/be",
            "to": "http://id.d4k.dk/dataset/cdisc/sdtm/v3-4/be/studyid"
        },
        {
            "from": "http://id.d4k.dk/dataset/cdisc/sdtm/v3-4/be",
            "to": "http://id.d4k.dk/dataset/cdisc/sdtm/v3-4/be/domain"
        },
        {
            "from": "http://id.d4k.dk/dataset/cdisc/sdtm/v3-4/be",
            "to": "http://id.d4k.dk/dataset/cdisc/sdtm/v3-4/be/usubjid"
        },
        {
            "from": "http://id.d4k.dk/dataset/cdisc/sdtm/v3-4/be",
            "to": "http://id.d4k.dk/dataset/cdisc/sdtm/v3-4/be/spdevid"
        },
        {
            "from": "http://id.d4k.dk/dataset/cdisc/sdtm/v3-4/be",
            "to": "http://id.d4k.dk/dataset/cdisc/sdtm/v3-4/be/beseq"
        },
        {
            "from": "http://id.d4k.dk/dataset/cdisc/sdtm/v3-4/be",
            "to": "http://id.d4k.dk/dataset/cdisc/sdtm/v3-4/be/begrpid"
        },
        {
            "from": "http://id.d4k.dk/dataset/cdisc/sdtm/v3-4/be",
            "to": "http://id.d4k.dk/dataset/cdisc/sdtm/v3-4/be/berefid"
        },
        {
            "from": "http://id.d4k.dk/dataset/cdisc/sdtm/v3-4/be",
            "to": "http://id.d4k.dk/dataset/cdisc/sdtm/v3-4/be/bespid"
        },
        {
            "from": "http://id.d4k.dk/dataset/cdisc/sdtm/v3-4/be",
            "to": "http://id.d4k.dk/dataset/cdisc/sdtm/v3-4/be/beterm"
        },
        {
            "from": "http://id.d4k.dk/dataset/cdisc/sdtm/v3-4/be",
            "to": "http://id.d4k.dk/dataset/cdisc/sdtm/v3-4/be/bemodify"
        },
        {
            "from": "http://id.d4k.dk/dataset/cdisc/sdtm/v3-4/be",
            "to": "http://id.d4k.dk/dataset/cdisc/sdtm/v3-4/be/bedecod"
        },
        {
            "from": "http://id.d4k.dk/dataset/cdisc/sdtm/v3-4/be",
            "to": "http://id.d4k.dk/dataset/cdisc/sdtm/v3-4/be/becat"
        },
        {
            "from": "http://id.d4k.dk/dataset/cdisc/sdtm/v3-4/be",
            "to": "http://id.d4k.dk/dataset/cdisc/sdtm/v3-4/be/bescat"
        },
        {
            "from": "http://id.d4k.dk/dataset/cdisc/sdtm/v3-4/be",
            "to": "http://id.d4k.dk/dataset/cdisc/sdtm/v3-4/be/beloc"
        },
        {
            "from": "http://id.d4k.dk/dataset/cdisc/sdtm/v3-4/be",
            "to": "http://id.d4k.dk/dataset/cdisc/sdtm/v3-4/be/beparty"
        },
        {
            "from": "http://id.d4k.dk/dataset/cdisc/sdtm/v3-4/be",
            "to": "http://id.d4k.dk/dataset/cdisc/sdtm/v3-4/be/beprtyid"
        },
        {
            "from": "http://id.d4k.dk/dataset/cdisc/sdtm/v3-4/be",
            "to": "http://id.d4k.dk/dataset/cdisc/sdtm/v3-4/be/visitnum"
        },
        {
            "from": "http://id.d4k.dk/dataset/cdisc/sdtm/v3-4/be",
            "to": "http://id.d4k.dk/dataset/cdisc/sdtm/v3-4/be/visit"
        },
        {
            "from": "http://id.d4k.dk/dataset/cdisc/sdtm/v3-4/be",
            "to": "http://id.d4k.dk/dataset/cdisc/sdtm/v3-4/be/visitdy"
        },
        {
            "from": "http://id.d4k.dk/dataset/cdisc/sdtm/v3-4/be",
            "to": "http://id.d4k.dk/dataset/cdisc/sdtm/v3-4/be/bedtc"
        },
        {
            "from": "http://id.d4k.dk/dataset/cdisc/sdtm/v3-4/be",
            "to": "http://id.d4k.dk/dataset/cdisc/sdtm/v3-4/be/bestdtc"
        },
        {
            "from": "http://id.d4k.dk/dataset/cdisc/sdtm/v3-4/be",
            "to": "http://id.d4k.dk/dataset/cdisc/sdtm/v3-4/be/beendtc"
        },
        {
            "from": "http://id.d4k.dk/dataset/cdisc/sdtm/v3-4/be",
            "to": "http://id.d4k.dk/dataset/cdisc/sdtm/v3-4/be/bestdy"
        },
        {
            "from": "http://id.d4k.dk/dataset/cdisc/sdtm/v3-4/be",
            "to": "http://id.d4k.dk/dataset/cdisc/sdtm/v3-4/be/beendy"
        },
        {
            "from": "http://id.d4k.dk/dataset/cdisc/sdtm/v3-4/be",
            "to": "http://id.d4k.dk/dataset/cdisc/sdtm/v3-4/be/bedur"
        },
        {
            "from": "http://id.d4k.dk/dataset/cdisc/sdtm/v3-4/ce",
            "to": "http://id.d4k.dk/dataset/cdisc/sdtm/v3-4/ce/studyid"
        },
        {
            "from": "http://id.d4k.dk/dataset/cdisc/sdtm/v3-4/ce",
            "to": "http://id.d4k.dk/dataset/cdisc/sdtm/v3-4/ce/domain"
        },
        {
            "from": "http://id.d4k.dk/dataset/cdisc/sdtm/v3-4/ce",
            "to": "http://id.d4k.dk/dataset/cdisc/sdtm/v3-4/ce/usubjid"
        },
        {
            "from": "http://id.d4k.dk/dataset/cdisc/sdtm/v3-4/ce",
            "to": "http://id.d4k.dk/dataset/cdisc/sdtm/v3-4/ce/ceseq"
        },
        {
            "from": "http://id.d4k.dk/dataset/cdisc/sdtm/v3-4/ce",
            "to": "http://id.d4k.dk/dataset/cdisc/sdtm/v3-4/ce/cegrpid"
        },
        {
            "from": "http://id.d4k.dk/dataset/cdisc/sdtm/v3-4/ce",
            "to": "http://id.d4k.dk/dataset/cdisc/sdtm/v3-4/ce/cerefid"
        },
        {
            "from": "http://id.d4k.dk/dataset/cdisc/sdtm/v3-4/ce",
            "to": "http://id.d4k.dk/dataset/cdisc/sdtm/v3-4/ce/cespid"
        },
        {
            "from": "http://id.d4k.dk/dataset/cdisc/sdtm/v3-4/ce",
            "to": "http://id.d4k.dk/dataset/cdisc/sdtm/v3-4/ce/ceterm"
        },
        {
            "from": "http://id.d4k.dk/dataset/cdisc/sdtm/v3-4/ce",
            "to": "http://id.d4k.dk/dataset/cdisc/sdtm/v3-4/ce/cedecod"
        },
        {
            "from": "http://id.d4k.dk/dataset/cdisc/sdtm/v3-4/ce",
            "to": "http://id.d4k.dk/dataset/cdisc/sdtm/v3-4/ce/cecat"
        },
        {
            "from": "http://id.d4k.dk/dataset/cdisc/sdtm/v3-4/ce",
            "to": "http://id.d4k.dk/dataset/cdisc/sdtm/v3-4/ce/cescat"
        },
        {
            "from": "http://id.d4k.dk/dataset/cdisc/sdtm/v3-4/ce",
            "to": "http://id.d4k.dk/dataset/cdisc/sdtm/v3-4/ce/cepresp"
        },
        {
            "from": "http://id.d4k.dk/dataset/cdisc/sdtm/v3-4/ce",
            "to": "http://id.d4k.dk/dataset/cdisc/sdtm/v3-4/ce/ceoccur"
        },
        {
            "from": "http://id.d4k.dk/dataset/cdisc/sdtm/v3-4/ce",
            "to": "http://id.d4k.dk/dataset/cdisc/sdtm/v3-4/ce/cestat"
        },
        {
            "from": "http://id.d4k.dk/dataset/cdisc/sdtm/v3-4/ce",
            "to": "http://id.d4k.dk/dataset/cdisc/sdtm/v3-4/ce/cereasnd"
        },
        {
            "from": "http://id.d4k.dk/dataset/cdisc/sdtm/v3-4/ce",
            "to": "http://id.d4k.dk/dataset/cdisc/sdtm/v3-4/ce/cebodsys"
        },
        {
            "from": "http://id.d4k.dk/dataset/cdisc/sdtm/v3-4/ce",
            "to": "http://id.d4k.dk/dataset/cdisc/sdtm/v3-4/ce/cesev"
        },
        {
            "from": "http://id.d4k.dk/dataset/cdisc/sdtm/v3-4/ce",
            "to": "http://id.d4k.dk/dataset/cdisc/sdtm/v3-4/ce/cetoxgr"
        },
        {
            "from": "http://id.d4k.dk/dataset/cdisc/sdtm/v3-4/ce",
            "to": "http://id.d4k.dk/dataset/cdisc/sdtm/v3-4/ce/taetord"
        },
        {
            "from": "http://id.d4k.dk/dataset/cdisc/sdtm/v3-4/ce",
            "to": "http://id.d4k.dk/dataset/cdisc/sdtm/v3-4/ce/epoch"
        },
        {
            "from": "http://id.d4k.dk/dataset/cdisc/sdtm/v3-4/ce",
            "to": "http://id.d4k.dk/dataset/cdisc/sdtm/v3-4/ce/cedtc"
        },
        {
            "from": "http://id.d4k.dk/dataset/cdisc/sdtm/v3-4/ce",
            "to": "http://id.d4k.dk/dataset/cdisc/sdtm/v3-4/ce/cestdtc"
        },
        {
            "from": "http://id.d4k.dk/dataset/cdisc/sdtm/v3-4/ce",
            "to": "http://id.d4k.dk/dataset/cdisc/sdtm/v3-4/ce/ceendtc"
        },
        {
            "from": "http://id.d4k.dk/dataset/cdisc/sdtm/v3-4/ce",
            "to": "http://id.d4k.dk/dataset/cdisc/sdtm/v3-4/ce/cedy"
        },
        {
            "from": "http://id.d4k.dk/dataset/cdisc/sdtm/v3-4/ce",
            "to": "http://id.d4k.dk/dataset/cdisc/sdtm/v3-4/ce/cestdy"
        },
        {
            "from": "http://id.d4k.dk/dataset/cdisc/sdtm/v3-4/ce",
            "to": "http://id.d4k.dk/dataset/cdisc/sdtm/v3-4/ce/ceendy"
        },
        {
            "from": "http://id.d4k.dk/dataset/cdisc/sdtm/v3-4/ce",
            "to": "http://id.d4k.dk/dataset/cdisc/sdtm/v3-4/ce/cestrf"
        },
        {
            "from": "http://id.d4k.dk/dataset/cdisc/sdtm/v3-4/ce",
            "to": "http://id.d4k.dk/dataset/cdisc/sdtm/v3-4/ce/ceenrf"
        },
        {
            "from": "http://id.d4k.dk/dataset/cdisc/sdtm/v3-4/ce",
            "to": "http://id.d4k.dk/dataset/cdisc/sdtm/v3-4/ce/cestrtpt"
        },
        {
            "from": "http://id.d4k.dk/dataset/cdisc/sdtm/v3-4/ce",
            "to": "http://id.d4k.dk/dataset/cdisc/sdtm/v3-4/ce/cesttpt"
        },
        {
            "from": "http://id.d4k.dk/dataset/cdisc/sdtm/v3-4/ce",
            "to": "http://id.d4k.dk/dataset/cdisc/sdtm/v3-4/ce/ceenrtpt"
        },
        {
            "from": "http://id.d4k.dk/dataset/cdisc/sdtm/v3-4/ce",
            "to": "http://id.d4k.dk/dataset/cdisc/sdtm/v3-4/ce/ceentpt"
        },
        {
            "from": "http://id.d4k.dk/dataset/cdisc/sdtm/v3-4/ds",
            "to": "http://id.d4k.dk/dataset/cdisc/sdtm/v3-4/ds/studyid"
        },
        {
            "from": "http://id.d4k.dk/dataset/cdisc/sdtm/v3-4/ds",
            "to": "http://id.d4k.dk/dataset/cdisc/sdtm/v3-4/ds/domain"
        },
        {
            "from": "http://id.d4k.dk/dataset/cdisc/sdtm/v3-4/ds",
            "to": "http://id.d4k.dk/dataset/cdisc/sdtm/v3-4/ds/usubjid"
        },
        {
            "from": "http://id.d4k.dk/dataset/cdisc/sdtm/v3-4/ds",
            "to": "http://id.d4k.dk/dataset/cdisc/sdtm/v3-4/ds/dsseq"
        },
        {
            "from": "http://id.d4k.dk/dataset/cdisc/sdtm/v3-4/ds",
            "to": "http://id.d4k.dk/dataset/cdisc/sdtm/v3-4/ds/dsgrpid"
        },
        {
            "from": "http://id.d4k.dk/dataset/cdisc/sdtm/v3-4/ds",
            "to": "http://id.d4k.dk/dataset/cdisc/sdtm/v3-4/ds/dsrefid"
        },
        {
            "from": "http://id.d4k.dk/dataset/cdisc/sdtm/v3-4/ds",
            "to": "http://id.d4k.dk/dataset/cdisc/sdtm/v3-4/ds/dsspid"
        },
        {
            "from": "http://id.d4k.dk/dataset/cdisc/sdtm/v3-4/ds",
            "to": "http://id.d4k.dk/dataset/cdisc/sdtm/v3-4/ds/dsterm"
        },
        {
            "from": "http://id.d4k.dk/dataset/cdisc/sdtm/v3-4/ds",
            "to": "http://id.d4k.dk/dataset/cdisc/sdtm/v3-4/ds/dsdecod"
        },
        {
            "from": "http://id.d4k.dk/dataset/cdisc/sdtm/v3-4/ds",
            "to": "http://id.d4k.dk/dataset/cdisc/sdtm/v3-4/ds/dscat"
        },
        {
            "from": "http://id.d4k.dk/dataset/cdisc/sdtm/v3-4/ds",
            "to": "http://id.d4k.dk/dataset/cdisc/sdtm/v3-4/ds/dsscat"
        },
        {
            "from": "http://id.d4k.dk/dataset/cdisc/sdtm/v3-4/ds",
            "to": "http://id.d4k.dk/dataset/cdisc/sdtm/v3-4/ds/epoch"
        },
        {
            "from": "http://id.d4k.dk/dataset/cdisc/sdtm/v3-4/ds",
            "to": "http://id.d4k.dk/dataset/cdisc/sdtm/v3-4/ds/dsdtc"
        },
        {
            "from": "http://id.d4k.dk/dataset/cdisc/sdtm/v3-4/ds",
            "to": "http://id.d4k.dk/dataset/cdisc/sdtm/v3-4/ds/dsstdtc"
        },
        {
            "from": "http://id.d4k.dk/dataset/cdisc/sdtm/v3-4/ds",
            "to": "http://id.d4k.dk/dataset/cdisc/sdtm/v3-4/ds/dsdy"
        },
        {
            "from": "http://id.d4k.dk/dataset/cdisc/sdtm/v3-4/ds",
            "to": "http://id.d4k.dk/dataset/cdisc/sdtm/v3-4/ds/dsstdy"
        },
        {
            "from": "http://id.d4k.dk/dataset/cdisc/sdtm/v3-4/dv",
            "to": "http://id.d4k.dk/dataset/cdisc/sdtm/v3-4/dv/studyid"
        },
        {
            "from": "http://id.d4k.dk/dataset/cdisc/sdtm/v3-4/dv",
            "to": "http://id.d4k.dk/dataset/cdisc/sdtm/v3-4/dv/domain"
        },
        {
            "from": "http://id.d4k.dk/dataset/cdisc/sdtm/v3-4/dv",
            "to": "http://id.d4k.dk/dataset/cdisc/sdtm/v3-4/dv/usubjid"
        },
        {
            "from": "http://id.d4k.dk/dataset/cdisc/sdtm/v3-4/dv",
            "to": "http://id.d4k.dk/dataset/cdisc/sdtm/v3-4/dv/dvseq"
        },
        {
            "from": "http://id.d4k.dk/dataset/cdisc/sdtm/v3-4/dv",
            "to": "http://id.d4k.dk/dataset/cdisc/sdtm/v3-4/dv/dvrefid"
        },
        {
            "from": "http://id.d4k.dk/dataset/cdisc/sdtm/v3-4/dv",
            "to": "http://id.d4k.dk/dataset/cdisc/sdtm/v3-4/dv/dvspid"
        },
        {
            "from": "http://id.d4k.dk/dataset/cdisc/sdtm/v3-4/dv",
            "to": "http://id.d4k.dk/dataset/cdisc/sdtm/v3-4/dv/dvterm"
        },
        {
            "from": "http://id.d4k.dk/dataset/cdisc/sdtm/v3-4/dv",
            "to": "http://id.d4k.dk/dataset/cdisc/sdtm/v3-4/dv/dvdecod"
        },
        {
            "from": "http://id.d4k.dk/dataset/cdisc/sdtm/v3-4/dv",
            "to": "http://id.d4k.dk/dataset/cdisc/sdtm/v3-4/dv/dvcat"
        },
        {
            "from": "http://id.d4k.dk/dataset/cdisc/sdtm/v3-4/dv",
            "to": "http://id.d4k.dk/dataset/cdisc/sdtm/v3-4/dv/dvscat"
        },
        {
            "from": "http://id.d4k.dk/dataset/cdisc/sdtm/v3-4/dv",
            "to": "http://id.d4k.dk/dataset/cdisc/sdtm/v3-4/dv/taetord"
        },
        {
            "from": "http://id.d4k.dk/dataset/cdisc/sdtm/v3-4/dv",
            "to": "http://id.d4k.dk/dataset/cdisc/sdtm/v3-4/dv/epoch"
        },
        {
            "from": "http://id.d4k.dk/dataset/cdisc/sdtm/v3-4/dv",
            "to": "http://id.d4k.dk/dataset/cdisc/sdtm/v3-4/dv/dvstdtc"
        },
        {
            "from": "http://id.d4k.dk/dataset/cdisc/sdtm/v3-4/dv",
            "to": "http://id.d4k.dk/dataset/cdisc/sdtm/v3-4/dv/dvendtc"
        },
        {
            "from": "http://id.d4k.dk/dataset/cdisc/sdtm/v3-4/dv",
            "to": "http://id.d4k.dk/dataset/cdisc/sdtm/v3-4/dv/dvstdy"
        },
        {
            "from": "http://id.d4k.dk/dataset/cdisc/sdtm/v3-4/dv",
            "to": "http://id.d4k.dk/dataset/cdisc/sdtm/v3-4/dv/dvendy"
        },
        {
            "from": "http://id.d4k.dk/dataset/cdisc/sdtm/v3-4/ho",
            "to": "http://id.d4k.dk/dataset/cdisc/sdtm/v3-4/ho/studyid"
        },
        {
            "from": "http://id.d4k.dk/dataset/cdisc/sdtm/v3-4/ho",
            "to": "http://id.d4k.dk/dataset/cdisc/sdtm/v3-4/ho/domain"
        },
        {
            "from": "http://id.d4k.dk/dataset/cdisc/sdtm/v3-4/ho",
            "to": "http://id.d4k.dk/dataset/cdisc/sdtm/v3-4/ho/usubjid"
        },
        {
            "from": "http://id.d4k.dk/dataset/cdisc/sdtm/v3-4/ho",
            "to": "http://id.d4k.dk/dataset/cdisc/sdtm/v3-4/ho/hoseq"
        },
        {
            "from": "http://id.d4k.dk/dataset/cdisc/sdtm/v3-4/ho",
            "to": "http://id.d4k.dk/dataset/cdisc/sdtm/v3-4/ho/hogrpid"
        },
        {
            "from": "http://id.d4k.dk/dataset/cdisc/sdtm/v3-4/ho",
            "to": "http://id.d4k.dk/dataset/cdisc/sdtm/v3-4/ho/horefid"
        },
        {
            "from": "http://id.d4k.dk/dataset/cdisc/sdtm/v3-4/ho",
            "to": "http://id.d4k.dk/dataset/cdisc/sdtm/v3-4/ho/hospid"
        },
        {
            "from": "http://id.d4k.dk/dataset/cdisc/sdtm/v3-4/ho",
            "to": "http://id.d4k.dk/dataset/cdisc/sdtm/v3-4/ho/hoterm"
        },
        {
            "from": "http://id.d4k.dk/dataset/cdisc/sdtm/v3-4/ho",
            "to": "http://id.d4k.dk/dataset/cdisc/sdtm/v3-4/ho/hodecod"
        },
        {
            "from": "http://id.d4k.dk/dataset/cdisc/sdtm/v3-4/ho",
            "to": "http://id.d4k.dk/dataset/cdisc/sdtm/v3-4/ho/hocat"
        },
        {
            "from": "http://id.d4k.dk/dataset/cdisc/sdtm/v3-4/ho",
            "to": "http://id.d4k.dk/dataset/cdisc/sdtm/v3-4/ho/hoscat"
        },
        {
            "from": "http://id.d4k.dk/dataset/cdisc/sdtm/v3-4/ho",
            "to": "http://id.d4k.dk/dataset/cdisc/sdtm/v3-4/ho/hopresp"
        },
        {
            "from": "http://id.d4k.dk/dataset/cdisc/sdtm/v3-4/ho",
            "to": "http://id.d4k.dk/dataset/cdisc/sdtm/v3-4/ho/hooccur"
        },
        {
            "from": "http://id.d4k.dk/dataset/cdisc/sdtm/v3-4/ho",
            "to": "http://id.d4k.dk/dataset/cdisc/sdtm/v3-4/ho/hostat"
        },
        {
            "from": "http://id.d4k.dk/dataset/cdisc/sdtm/v3-4/ho",
            "to": "http://id.d4k.dk/dataset/cdisc/sdtm/v3-4/ho/horeasnd"
        },
        {
            "from": "http://id.d4k.dk/dataset/cdisc/sdtm/v3-4/ho",
            "to": "http://id.d4k.dk/dataset/cdisc/sdtm/v3-4/ho/taetord"
        },
        {
            "from": "http://id.d4k.dk/dataset/cdisc/sdtm/v3-4/ho",
            "to": "http://id.d4k.dk/dataset/cdisc/sdtm/v3-4/ho/epoch"
        },
        {
            "from": "http://id.d4k.dk/dataset/cdisc/sdtm/v3-4/ho",
            "to": "http://id.d4k.dk/dataset/cdisc/sdtm/v3-4/ho/hodtc"
        },
        {
            "from": "http://id.d4k.dk/dataset/cdisc/sdtm/v3-4/ho",
            "to": "http://id.d4k.dk/dataset/cdisc/sdtm/v3-4/ho/hostdtc"
        },
        {
            "from": "http://id.d4k.dk/dataset/cdisc/sdtm/v3-4/ho",
            "to": "http://id.d4k.dk/dataset/cdisc/sdtm/v3-4/ho/hoendtc"
        },
        {
            "from": "http://id.d4k.dk/dataset/cdisc/sdtm/v3-4/ho",
            "to": "http://id.d4k.dk/dataset/cdisc/sdtm/v3-4/ho/hody"
        },
        {
            "from": "http://id.d4k.dk/dataset/cdisc/sdtm/v3-4/ho",
            "to": "http://id.d4k.dk/dataset/cdisc/sdtm/v3-4/ho/hostdy"
        },
        {
            "from": "http://id.d4k.dk/dataset/cdisc/sdtm/v3-4/ho",
            "to": "http://id.d4k.dk/dataset/cdisc/sdtm/v3-4/ho/hoendy"
        },
        {
            "from": "http://id.d4k.dk/dataset/cdisc/sdtm/v3-4/ho",
            "to": "http://id.d4k.dk/dataset/cdisc/sdtm/v3-4/ho/hodur"
        },
        {
            "from": "http://id.d4k.dk/dataset/cdisc/sdtm/v3-4/ho",
            "to": "http://id.d4k.dk/dataset/cdisc/sdtm/v3-4/ho/hostrtpt"
        },
        {
            "from": "http://id.d4k.dk/dataset/cdisc/sdtm/v3-4/ho",
            "to": "http://id.d4k.dk/dataset/cdisc/sdtm/v3-4/ho/hosttpt"
        },
        {
            "from": "http://id.d4k.dk/dataset/cdisc/sdtm/v3-4/ho",
            "to": "http://id.d4k.dk/dataset/cdisc/sdtm/v3-4/ho/hoenrtpt"
        },
        {
            "from": "http://id.d4k.dk/dataset/cdisc/sdtm/v3-4/ho",
            "to": "http://id.d4k.dk/dataset/cdisc/sdtm/v3-4/ho/hoentpt"
        },
        {
            "from": "http://id.d4k.dk/dataset/cdisc/sdtm/v3-4/mh",
            "to": "http://id.d4k.dk/dataset/cdisc/sdtm/v3-4/mh/studyid"
        },
        {
            "from": "http://id.d4k.dk/dataset/cdisc/sdtm/v3-4/mh",
            "to": "http://id.d4k.dk/dataset/cdisc/sdtm/v3-4/mh/domain"
        },
        {
            "from": "http://id.d4k.dk/dataset/cdisc/sdtm/v3-4/mh",
            "to": "http://id.d4k.dk/dataset/cdisc/sdtm/v3-4/mh/usubjid"
        },
        {
            "from": "http://id.d4k.dk/dataset/cdisc/sdtm/v3-4/mh",
            "to": "http://id.d4k.dk/dataset/cdisc/sdtm/v3-4/mh/mhseq"
        },
        {
            "from": "http://id.d4k.dk/dataset/cdisc/sdtm/v3-4/mh",
            "to": "http://id.d4k.dk/dataset/cdisc/sdtm/v3-4/mh/mhgrpid"
        },
        {
            "from": "http://id.d4k.dk/dataset/cdisc/sdtm/v3-4/mh",
            "to": "http://id.d4k.dk/dataset/cdisc/sdtm/v3-4/mh/mhrefid"
        },
        {
            "from": "http://id.d4k.dk/dataset/cdisc/sdtm/v3-4/mh",
            "to": "http://id.d4k.dk/dataset/cdisc/sdtm/v3-4/mh/mhspid"
        },
        {
            "from": "http://id.d4k.dk/dataset/cdisc/sdtm/v3-4/mh",
            "to": "http://id.d4k.dk/dataset/cdisc/sdtm/v3-4/mh/mhterm"
        },
        {
            "from": "http://id.d4k.dk/dataset/cdisc/sdtm/v3-4/mh",
            "to": "http://id.d4k.dk/dataset/cdisc/sdtm/v3-4/mh/mhmodify"
        },
        {
            "from": "http://id.d4k.dk/dataset/cdisc/sdtm/v3-4/mh",
            "to": "http://id.d4k.dk/dataset/cdisc/sdtm/v3-4/mh/mhdecod"
        },
        {
            "from": "http://id.d4k.dk/dataset/cdisc/sdtm/v3-4/mh",
            "to": "http://id.d4k.dk/dataset/cdisc/sdtm/v3-4/mh/mhevdtyp"
        },
        {
            "from": "http://id.d4k.dk/dataset/cdisc/sdtm/v3-4/mh",
            "to": "http://id.d4k.dk/dataset/cdisc/sdtm/v3-4/mh/mhcat"
        },
        {
            "from": "http://id.d4k.dk/dataset/cdisc/sdtm/v3-4/mh",
            "to": "http://id.d4k.dk/dataset/cdisc/sdtm/v3-4/mh/mhscat"
        },
        {
            "from": "http://id.d4k.dk/dataset/cdisc/sdtm/v3-4/mh",
            "to": "http://id.d4k.dk/dataset/cdisc/sdtm/v3-4/mh/mhpresp"
        },
        {
            "from": "http://id.d4k.dk/dataset/cdisc/sdtm/v3-4/mh",
            "to": "http://id.d4k.dk/dataset/cdisc/sdtm/v3-4/mh/mhoccur"
        },
        {
            "from": "http://id.d4k.dk/dataset/cdisc/sdtm/v3-4/mh",
            "to": "http://id.d4k.dk/dataset/cdisc/sdtm/v3-4/mh/mhstat"
        },
        {
            "from": "http://id.d4k.dk/dataset/cdisc/sdtm/v3-4/mh",
            "to": "http://id.d4k.dk/dataset/cdisc/sdtm/v3-4/mh/mhreasnd"
        },
        {
            "from": "http://id.d4k.dk/dataset/cdisc/sdtm/v3-4/mh",
            "to": "http://id.d4k.dk/dataset/cdisc/sdtm/v3-4/mh/mhbodsys"
        },
        {
            "from": "http://id.d4k.dk/dataset/cdisc/sdtm/v3-4/mh",
            "to": "http://id.d4k.dk/dataset/cdisc/sdtm/v3-4/mh/taetord"
        },
        {
            "from": "http://id.d4k.dk/dataset/cdisc/sdtm/v3-4/mh",
            "to": "http://id.d4k.dk/dataset/cdisc/sdtm/v3-4/mh/epoch"
        },
        {
            "from": "http://id.d4k.dk/dataset/cdisc/sdtm/v3-4/mh",
            "to": "http://id.d4k.dk/dataset/cdisc/sdtm/v3-4/mh/mhdtc"
        },
        {
            "from": "http://id.d4k.dk/dataset/cdisc/sdtm/v3-4/mh",
            "to": "http://id.d4k.dk/dataset/cdisc/sdtm/v3-4/mh/mhstdtc"
        },
        {
            "from": "http://id.d4k.dk/dataset/cdisc/sdtm/v3-4/mh",
            "to": "http://id.d4k.dk/dataset/cdisc/sdtm/v3-4/mh/mhendtc"
        },
        {
            "from": "http://id.d4k.dk/dataset/cdisc/sdtm/v3-4/mh",
            "to": "http://id.d4k.dk/dataset/cdisc/sdtm/v3-4/mh/mhdy"
        },
        {
            "from": "http://id.d4k.dk/dataset/cdisc/sdtm/v3-4/mh",
            "to": "http://id.d4k.dk/dataset/cdisc/sdtm/v3-4/mh/mhenrf"
        },
        {
            "from": "http://id.d4k.dk/dataset/cdisc/sdtm/v3-4/mh",
            "to": "http://id.d4k.dk/dataset/cdisc/sdtm/v3-4/mh/mhenrtpt"
        },
        {
            "from": "http://id.d4k.dk/dataset/cdisc/sdtm/v3-4/mh",
            "to": "http://id.d4k.dk/dataset/cdisc/sdtm/v3-4/mh/mhentpt"
        },
        {
            "from": "http://id.d4k.dk/dataset/cdisc/sdtm/v3-4/bs",
            "to": "http://id.d4k.dk/dataset/cdisc/sdtm/v3-4/bs/studyid"
        },
        {
            "from": "http://id.d4k.dk/dataset/cdisc/sdtm/v3-4/bs",
            "to": "http://id.d4k.dk/dataset/cdisc/sdtm/v3-4/bs/domain"
        },
        {
            "from": "http://id.d4k.dk/dataset/cdisc/sdtm/v3-4/bs",
            "to": "http://id.d4k.dk/dataset/cdisc/sdtm/v3-4/bs/usubjid"
        },
        {
            "from": "http://id.d4k.dk/dataset/cdisc/sdtm/v3-4/bs",
            "to": "http://id.d4k.dk/dataset/cdisc/sdtm/v3-4/bs/spdevid"
        },
        {
            "from": "http://id.d4k.dk/dataset/cdisc/sdtm/v3-4/bs",
            "to": "http://id.d4k.dk/dataset/cdisc/sdtm/v3-4/bs/bsseq"
        },
        {
            "from": "http://id.d4k.dk/dataset/cdisc/sdtm/v3-4/bs",
            "to": "http://id.d4k.dk/dataset/cdisc/sdtm/v3-4/bs/bsgrpid"
        },
        {
            "from": "http://id.d4k.dk/dataset/cdisc/sdtm/v3-4/bs",
            "to": "http://id.d4k.dk/dataset/cdisc/sdtm/v3-4/bs/bsrefid"
        },
        {
            "from": "http://id.d4k.dk/dataset/cdisc/sdtm/v3-4/bs",
            "to": "http://id.d4k.dk/dataset/cdisc/sdtm/v3-4/bs/bsspid"
        },
        {
            "from": "http://id.d4k.dk/dataset/cdisc/sdtm/v3-4/bs",
            "to": "http://id.d4k.dk/dataset/cdisc/sdtm/v3-4/bs/bstestcd"
        },
        {
            "from": "http://id.d4k.dk/dataset/cdisc/sdtm/v3-4/bs",
            "to": "http://id.d4k.dk/dataset/cdisc/sdtm/v3-4/bs/bstest"
        },
        {
            "from": "http://id.d4k.dk/dataset/cdisc/sdtm/v3-4/bs",
            "to": "http://id.d4k.dk/dataset/cdisc/sdtm/v3-4/bs/bscat"
        },
        {
            "from": "http://id.d4k.dk/dataset/cdisc/sdtm/v3-4/bs",
            "to": "http://id.d4k.dk/dataset/cdisc/sdtm/v3-4/bs/bsscat"
        },
        {
            "from": "http://id.d4k.dk/dataset/cdisc/sdtm/v3-4/bs",
            "to": "http://id.d4k.dk/dataset/cdisc/sdtm/v3-4/bs/bsorres"
        },
        {
            "from": "http://id.d4k.dk/dataset/cdisc/sdtm/v3-4/bs",
            "to": "http://id.d4k.dk/dataset/cdisc/sdtm/v3-4/bs/bsorresu"
        },
        {
            "from": "http://id.d4k.dk/dataset/cdisc/sdtm/v3-4/bs",
            "to": "http://id.d4k.dk/dataset/cdisc/sdtm/v3-4/bs/bsstresc"
        },
        {
            "from": "http://id.d4k.dk/dataset/cdisc/sdtm/v3-4/bs",
            "to": "http://id.d4k.dk/dataset/cdisc/sdtm/v3-4/bs/bsstresn"
        },
        {
            "from": "http://id.d4k.dk/dataset/cdisc/sdtm/v3-4/bs",
            "to": "http://id.d4k.dk/dataset/cdisc/sdtm/v3-4/bs/bsstresu"
        },
        {
            "from": "http://id.d4k.dk/dataset/cdisc/sdtm/v3-4/bs",
            "to": "http://id.d4k.dk/dataset/cdisc/sdtm/v3-4/bs/bsstat"
        },
        {
            "from": "http://id.d4k.dk/dataset/cdisc/sdtm/v3-4/bs",
            "to": "http://id.d4k.dk/dataset/cdisc/sdtm/v3-4/bs/bsreasnd"
        },
        {
            "from": "http://id.d4k.dk/dataset/cdisc/sdtm/v3-4/bs",
            "to": "http://id.d4k.dk/dataset/cdisc/sdtm/v3-4/bs/bsnam"
        },
        {
            "from": "http://id.d4k.dk/dataset/cdisc/sdtm/v3-4/bs",
            "to": "http://id.d4k.dk/dataset/cdisc/sdtm/v3-4/bs/bsspec"
        },
        {
            "from": "http://id.d4k.dk/dataset/cdisc/sdtm/v3-4/bs",
            "to": "http://id.d4k.dk/dataset/cdisc/sdtm/v3-4/bs/bsantreg"
        },
        {
            "from": "http://id.d4k.dk/dataset/cdisc/sdtm/v3-4/bs",
            "to": "http://id.d4k.dk/dataset/cdisc/sdtm/v3-4/bs/bsspccnd"
        },
        {
            "from": "http://id.d4k.dk/dataset/cdisc/sdtm/v3-4/bs",
            "to": "http://id.d4k.dk/dataset/cdisc/sdtm/v3-4/bs/bsmethod"
        },
        {
            "from": "http://id.d4k.dk/dataset/cdisc/sdtm/v3-4/bs",
            "to": "http://id.d4k.dk/dataset/cdisc/sdtm/v3-4/bs/bsblfl"
        },
        {
            "from": "http://id.d4k.dk/dataset/cdisc/sdtm/v3-4/bs",
            "to": "http://id.d4k.dk/dataset/cdisc/sdtm/v3-4/bs/visitnum"
        },
        {
            "from": "http://id.d4k.dk/dataset/cdisc/sdtm/v3-4/bs",
            "to": "http://id.d4k.dk/dataset/cdisc/sdtm/v3-4/bs/visit"
        },
        {
            "from": "http://id.d4k.dk/dataset/cdisc/sdtm/v3-4/bs",
            "to": "http://id.d4k.dk/dataset/cdisc/sdtm/v3-4/bs/visitdy"
        },
        {
            "from": "http://id.d4k.dk/dataset/cdisc/sdtm/v3-4/bs",
            "to": "http://id.d4k.dk/dataset/cdisc/sdtm/v3-4/bs/bsdtc"
        },
        {
            "from": "http://id.d4k.dk/dataset/cdisc/sdtm/v3-4/bs",
            "to": "http://id.d4k.dk/dataset/cdisc/sdtm/v3-4/bs/bsdy"
        },
        {
            "from": "http://id.d4k.dk/dataset/cdisc/sdtm/v3-4/bs",
            "to": "http://id.d4k.dk/dataset/cdisc/sdtm/v3-4/bs/bstpt"
        },
        {
            "from": "http://id.d4k.dk/dataset/cdisc/sdtm/v3-4/bs",
            "to": "http://id.d4k.dk/dataset/cdisc/sdtm/v3-4/bs/bstptnum"
        },
        {
            "from": "http://id.d4k.dk/dataset/cdisc/sdtm/v3-4/bs",
            "to": "http://id.d4k.dk/dataset/cdisc/sdtm/v3-4/bs/bseltm"
        },
        {
            "from": "http://id.d4k.dk/dataset/cdisc/sdtm/v3-4/bs",
            "to": "http://id.d4k.dk/dataset/cdisc/sdtm/v3-4/bs/bstptref"
        },
        {
            "from": "http://id.d4k.dk/dataset/cdisc/sdtm/v3-4/bs",
            "to": "http://id.d4k.dk/dataset/cdisc/sdtm/v3-4/bs/bsrftdtc"
        },
        {
            "from": "http://id.d4k.dk/dataset/cdisc/sdtm/v3-4/cp",
            "to": "http://id.d4k.dk/dataset/cdisc/sdtm/v3-4/cp/studyid"
        },
        {
            "from": "http://id.d4k.dk/dataset/cdisc/sdtm/v3-4/cp",
            "to": "http://id.d4k.dk/dataset/cdisc/sdtm/v3-4/cp/domain"
        },
        {
            "from": "http://id.d4k.dk/dataset/cdisc/sdtm/v3-4/cp",
            "to": "http://id.d4k.dk/dataset/cdisc/sdtm/v3-4/cp/usubjid"
        },
        {
            "from": "http://id.d4k.dk/dataset/cdisc/sdtm/v3-4/cp",
            "to": "http://id.d4k.dk/dataset/cdisc/sdtm/v3-4/cp/cpseq"
        },
        {
            "from": "http://id.d4k.dk/dataset/cdisc/sdtm/v3-4/cp",
            "to": "http://id.d4k.dk/dataset/cdisc/sdtm/v3-4/cp/cpgrpid"
        },
        {
            "from": "http://id.d4k.dk/dataset/cdisc/sdtm/v3-4/cp",
            "to": "http://id.d4k.dk/dataset/cdisc/sdtm/v3-4/cp/cprefid"
        },
        {
            "from": "http://id.d4k.dk/dataset/cdisc/sdtm/v3-4/cp",
            "to": "http://id.d4k.dk/dataset/cdisc/sdtm/v3-4/cp/cpspid"
        },
        {
            "from": "http://id.d4k.dk/dataset/cdisc/sdtm/v3-4/cp",
            "to": "http://id.d4k.dk/dataset/cdisc/sdtm/v3-4/cp/cplnkid"
        },
        {
            "from": "http://id.d4k.dk/dataset/cdisc/sdtm/v3-4/cp",
            "to": "http://id.d4k.dk/dataset/cdisc/sdtm/v3-4/cp/cplnkgrp"
        },
        {
            "from": "http://id.d4k.dk/dataset/cdisc/sdtm/v3-4/cp",
            "to": "http://id.d4k.dk/dataset/cdisc/sdtm/v3-4/cp/cptestcd"
        },
        {
            "from": "http://id.d4k.dk/dataset/cdisc/sdtm/v3-4/cp",
            "to": "http://id.d4k.dk/dataset/cdisc/sdtm/v3-4/cp/cptest"
        },
        {
            "from": "http://id.d4k.dk/dataset/cdisc/sdtm/v3-4/cp",
            "to": "http://id.d4k.dk/dataset/cdisc/sdtm/v3-4/cp/cpsbmrks"
        },
        {
            "from": "http://id.d4k.dk/dataset/cdisc/sdtm/v3-4/cp",
            "to": "http://id.d4k.dk/dataset/cdisc/sdtm/v3-4/cp/cpcelsta"
        },
        {
            "from": "http://id.d4k.dk/dataset/cdisc/sdtm/v3-4/cp",
            "to": "http://id.d4k.dk/dataset/cdisc/sdtm/v3-4/cp/cpcsmrks"
        },
        {
            "from": "http://id.d4k.dk/dataset/cdisc/sdtm/v3-4/cp",
            "to": "http://id.d4k.dk/dataset/cdisc/sdtm/v3-4/cp/cptstcnd"
        },
        {
            "from": "http://id.d4k.dk/dataset/cdisc/sdtm/v3-4/cp",
            "to": "http://id.d4k.dk/dataset/cdisc/sdtm/v3-4/cp/cpcndagt"
        },
        {
            "from": "http://id.d4k.dk/dataset/cdisc/sdtm/v3-4/cp",
            "to": "http://id.d4k.dk/dataset/cdisc/sdtm/v3-4/cp/cpbdagnt"
        },
        {
            "from": "http://id.d4k.dk/dataset/cdisc/sdtm/v3-4/cp",
            "to": "http://id.d4k.dk/dataset/cdisc/sdtm/v3-4/cp/cpabclid"
        },
        {
            "from": "http://id.d4k.dk/dataset/cdisc/sdtm/v3-4/cp",
            "to": "http://id.d4k.dk/dataset/cdisc/sdtm/v3-4/cp/cpmrkstr"
        },
        {
            "from": "http://id.d4k.dk/dataset/cdisc/sdtm/v3-4/cp",
            "to": "http://id.d4k.dk/dataset/cdisc/sdtm/v3-4/cp/cpgate"
        },
        {
            "from": "http://id.d4k.dk/dataset/cdisc/sdtm/v3-4/cp",
            "to": "http://id.d4k.dk/dataset/cdisc/sdtm/v3-4/cp/cpgatdef"
        },
        {
            "from": "http://id.d4k.dk/dataset/cdisc/sdtm/v3-4/cp",
            "to": "http://id.d4k.dk/dataset/cdisc/sdtm/v3-4/cp/cpsptstd"
        },
        {
            "from": "http://id.d4k.dk/dataset/cdisc/sdtm/v3-4/cp",
            "to": "http://id.d4k.dk/dataset/cdisc/sdtm/v3-4/cp/cpcat"
        },
        {
            "from": "http://id.d4k.dk/dataset/cdisc/sdtm/v3-4/cp",
            "to": "http://id.d4k.dk/dataset/cdisc/sdtm/v3-4/cp/cpscat"
        },
        {
            "from": "http://id.d4k.dk/dataset/cdisc/sdtm/v3-4/cp",
            "to": "http://id.d4k.dk/dataset/cdisc/sdtm/v3-4/cp/cptstpnl"
        },
        {
            "from": "http://id.d4k.dk/dataset/cdisc/sdtm/v3-4/cp",
            "to": "http://id.d4k.dk/dataset/cdisc/sdtm/v3-4/cp/cporres"
        },
        {
            "from": "http://id.d4k.dk/dataset/cdisc/sdtm/v3-4/cp",
            "to": "http://id.d4k.dk/dataset/cdisc/sdtm/v3-4/cp/cporresu"
        },
        {
            "from": "http://id.d4k.dk/dataset/cdisc/sdtm/v3-4/cp",
            "to": "http://id.d4k.dk/dataset/cdisc/sdtm/v3-4/cp/cpresscl"
        },
        {
            "from": "http://id.d4k.dk/dataset/cdisc/sdtm/v3-4/cp",
            "to": "http://id.d4k.dk/dataset/cdisc/sdtm/v3-4/cp/cprestyp"
        },
        {
            "from": "http://id.d4k.dk/dataset/cdisc/sdtm/v3-4/cp",
            "to": "http://id.d4k.dk/dataset/cdisc/sdtm/v3-4/cp/cpcolsrt"
        },
        {
            "from": "http://id.d4k.dk/dataset/cdisc/sdtm/v3-4/cp",
            "to": "http://id.d4k.dk/dataset/cdisc/sdtm/v3-4/cp/cpornrlo"
        },
        {
            "from": "http://id.d4k.dk/dataset/cdisc/sdtm/v3-4/cp",
            "to": "http://id.d4k.dk/dataset/cdisc/sdtm/v3-4/cp/cpornrhi"
        },
        {
            "from": "http://id.d4k.dk/dataset/cdisc/sdtm/v3-4/cp",
            "to": "http://id.d4k.dk/dataset/cdisc/sdtm/v3-4/cp/cpstresc"
        },
        {
            "from": "http://id.d4k.dk/dataset/cdisc/sdtm/v3-4/cp",
            "to": "http://id.d4k.dk/dataset/cdisc/sdtm/v3-4/cp/cpstresn"
        },
        {
            "from": "http://id.d4k.dk/dataset/cdisc/sdtm/v3-4/cp",
            "to": "http://id.d4k.dk/dataset/cdisc/sdtm/v3-4/cp/cpstresu"
        },
        {
            "from": "http://id.d4k.dk/dataset/cdisc/sdtm/v3-4/cp",
            "to": "http://id.d4k.dk/dataset/cdisc/sdtm/v3-4/cp/cpstnrlo"
        },
        {
            "from": "http://id.d4k.dk/dataset/cdisc/sdtm/v3-4/cp",
            "to": "http://id.d4k.dk/dataset/cdisc/sdtm/v3-4/cp/cpstnrhi"
        },
        {
            "from": "http://id.d4k.dk/dataset/cdisc/sdtm/v3-4/cp",
            "to": "http://id.d4k.dk/dataset/cdisc/sdtm/v3-4/cp/cpnrind"
        },
        {
            "from": "http://id.d4k.dk/dataset/cdisc/sdtm/v3-4/cp",
            "to": "http://id.d4k.dk/dataset/cdisc/sdtm/v3-4/cp/cpstat"
        },
        {
            "from": "http://id.d4k.dk/dataset/cdisc/sdtm/v3-4/cp",
            "to": "http://id.d4k.dk/dataset/cdisc/sdtm/v3-4/cp/cpreasnd"
        },
        {
            "from": "http://id.d4k.dk/dataset/cdisc/sdtm/v3-4/cp",
            "to": "http://id.d4k.dk/dataset/cdisc/sdtm/v3-4/cp/cpnam"
        },
        {
            "from": "http://id.d4k.dk/dataset/cdisc/sdtm/v3-4/cp",
            "to": "http://id.d4k.dk/dataset/cdisc/sdtm/v3-4/cp/cploinc"
        },
        {
            "from": "http://id.d4k.dk/dataset/cdisc/sdtm/v3-4/cp",
            "to": "http://id.d4k.dk/dataset/cdisc/sdtm/v3-4/cp/cpspec"
        },
        {
            "from": "http://id.d4k.dk/dataset/cdisc/sdtm/v3-4/cp",
            "to": "http://id.d4k.dk/dataset/cdisc/sdtm/v3-4/cp/cpspccnd"
        },
        {
            "from": "http://id.d4k.dk/dataset/cdisc/sdtm/v3-4/cp",
            "to": "http://id.d4k.dk/dataset/cdisc/sdtm/v3-4/cp/cpmethod"
        },
        {
            "from": "http://id.d4k.dk/dataset/cdisc/sdtm/v3-4/cp",
            "to": "http://id.d4k.dk/dataset/cdisc/sdtm/v3-4/cp/cpanmeth"
        },
        {
            "from": "http://id.d4k.dk/dataset/cdisc/sdtm/v3-4/cp",
            "to": "http://id.d4k.dk/dataset/cdisc/sdtm/v3-4/cp/cplobxfl"
        },
        {
            "from": "http://id.d4k.dk/dataset/cdisc/sdtm/v3-4/cp",
            "to": "http://id.d4k.dk/dataset/cdisc/sdtm/v3-4/cp/cpblfl"
        },
        {
            "from": "http://id.d4k.dk/dataset/cdisc/sdtm/v3-4/cp",
            "to": "http://id.d4k.dk/dataset/cdisc/sdtm/v3-4/cp/cpdrvfl"
        },
        {
            "from": "http://id.d4k.dk/dataset/cdisc/sdtm/v3-4/cp",
            "to": "http://id.d4k.dk/dataset/cdisc/sdtm/v3-4/cp/cpclsig"
        },
        {
            "from": "http://id.d4k.dk/dataset/cdisc/sdtm/v3-4/cp",
            "to": "http://id.d4k.dk/dataset/cdisc/sdtm/v3-4/cp/visitnum"
        },
        {
            "from": "http://id.d4k.dk/dataset/cdisc/sdtm/v3-4/cp",
            "to": "http://id.d4k.dk/dataset/cdisc/sdtm/v3-4/cp/visit"
        },
        {
            "from": "http://id.d4k.dk/dataset/cdisc/sdtm/v3-4/cp",
            "to": "http://id.d4k.dk/dataset/cdisc/sdtm/v3-4/cp/visitdy"
        },
        {
            "from": "http://id.d4k.dk/dataset/cdisc/sdtm/v3-4/cp",
            "to": "http://id.d4k.dk/dataset/cdisc/sdtm/v3-4/cp/taetord"
        },
        {
            "from": "http://id.d4k.dk/dataset/cdisc/sdtm/v3-4/cp",
            "to": "http://id.d4k.dk/dataset/cdisc/sdtm/v3-4/cp/epoch"
        },
        {
            "from": "http://id.d4k.dk/dataset/cdisc/sdtm/v3-4/cp",
            "to": "http://id.d4k.dk/dataset/cdisc/sdtm/v3-4/cp/cpdtc"
        },
        {
            "from": "http://id.d4k.dk/dataset/cdisc/sdtm/v3-4/cp",
            "to": "http://id.d4k.dk/dataset/cdisc/sdtm/v3-4/cp/cpdy"
        },
        {
            "from": "http://id.d4k.dk/dataset/cdisc/sdtm/v3-4/cp",
            "to": "http://id.d4k.dk/dataset/cdisc/sdtm/v3-4/cp/cptpt"
        },
        {
            "from": "http://id.d4k.dk/dataset/cdisc/sdtm/v3-4/cp",
            "to": "http://id.d4k.dk/dataset/cdisc/sdtm/v3-4/cp/cptptnum"
        },
        {
            "from": "http://id.d4k.dk/dataset/cdisc/sdtm/v3-4/cp",
            "to": "http://id.d4k.dk/dataset/cdisc/sdtm/v3-4/cp/cpeltm"
        },
        {
            "from": "http://id.d4k.dk/dataset/cdisc/sdtm/v3-4/cp",
            "to": "http://id.d4k.dk/dataset/cdisc/sdtm/v3-4/cp/cptptref"
        },
        {
            "from": "http://id.d4k.dk/dataset/cdisc/sdtm/v3-4/cp",
            "to": "http://id.d4k.dk/dataset/cdisc/sdtm/v3-4/cp/cprftdtc"
        },
        {
            "from": "http://id.d4k.dk/dataset/cdisc/sdtm/v3-4/cv",
            "to": "http://id.d4k.dk/dataset/cdisc/sdtm/v3-4/cv/studyid"
        },
        {
            "from": "http://id.d4k.dk/dataset/cdisc/sdtm/v3-4/cv",
            "to": "http://id.d4k.dk/dataset/cdisc/sdtm/v3-4/cv/domain"
        },
        {
            "from": "http://id.d4k.dk/dataset/cdisc/sdtm/v3-4/cv",
            "to": "http://id.d4k.dk/dataset/cdisc/sdtm/v3-4/cv/usubjid"
        },
        {
            "from": "http://id.d4k.dk/dataset/cdisc/sdtm/v3-4/cv",
            "to": "http://id.d4k.dk/dataset/cdisc/sdtm/v3-4/cv/cvseq"
        },
        {
            "from": "http://id.d4k.dk/dataset/cdisc/sdtm/v3-4/cv",
            "to": "http://id.d4k.dk/dataset/cdisc/sdtm/v3-4/cv/cvgrpid"
        },
        {
            "from": "http://id.d4k.dk/dataset/cdisc/sdtm/v3-4/cv",
            "to": "http://id.d4k.dk/dataset/cdisc/sdtm/v3-4/cv/cvrefid"
        },
        {
            "from": "http://id.d4k.dk/dataset/cdisc/sdtm/v3-4/cv",
            "to": "http://id.d4k.dk/dataset/cdisc/sdtm/v3-4/cv/cvspid"
        },
        {
            "from": "http://id.d4k.dk/dataset/cdisc/sdtm/v3-4/cv",
            "to": "http://id.d4k.dk/dataset/cdisc/sdtm/v3-4/cv/cvlnkid"
        },
        {
            "from": "http://id.d4k.dk/dataset/cdisc/sdtm/v3-4/cv",
            "to": "http://id.d4k.dk/dataset/cdisc/sdtm/v3-4/cv/cvlnkgrp"
        },
        {
            "from": "http://id.d4k.dk/dataset/cdisc/sdtm/v3-4/cv",
            "to": "http://id.d4k.dk/dataset/cdisc/sdtm/v3-4/cv/cvtestcd"
        },
        {
            "from": "http://id.d4k.dk/dataset/cdisc/sdtm/v3-4/cv",
            "to": "http://id.d4k.dk/dataset/cdisc/sdtm/v3-4/cv/cvtest"
        },
        {
            "from": "http://id.d4k.dk/dataset/cdisc/sdtm/v3-4/cv",
            "to": "http://id.d4k.dk/dataset/cdisc/sdtm/v3-4/cv/cvcat"
        },
        {
            "from": "http://id.d4k.dk/dataset/cdisc/sdtm/v3-4/cv",
            "to": "http://id.d4k.dk/dataset/cdisc/sdtm/v3-4/cv/cvscat"
        },
        {
            "from": "http://id.d4k.dk/dataset/cdisc/sdtm/v3-4/cv",
            "to": "http://id.d4k.dk/dataset/cdisc/sdtm/v3-4/cv/cvpos"
        },
        {
            "from": "http://id.d4k.dk/dataset/cdisc/sdtm/v3-4/cv",
            "to": "http://id.d4k.dk/dataset/cdisc/sdtm/v3-4/cv/cvorres"
        },
        {
            "from": "http://id.d4k.dk/dataset/cdisc/sdtm/v3-4/cv",
            "to": "http://id.d4k.dk/dataset/cdisc/sdtm/v3-4/cv/cvorresu"
        },
        {
            "from": "http://id.d4k.dk/dataset/cdisc/sdtm/v3-4/cv",
            "to": "http://id.d4k.dk/dataset/cdisc/sdtm/v3-4/cv/cvstresc"
        },
        {
            "from": "http://id.d4k.dk/dataset/cdisc/sdtm/v3-4/cv",
            "to": "http://id.d4k.dk/dataset/cdisc/sdtm/v3-4/cv/cvstresn"
        },
        {
            "from": "http://id.d4k.dk/dataset/cdisc/sdtm/v3-4/cv",
            "to": "http://id.d4k.dk/dataset/cdisc/sdtm/v3-4/cv/cvstresu"
        },
        {
            "from": "http://id.d4k.dk/dataset/cdisc/sdtm/v3-4/cv",
            "to": "http://id.d4k.dk/dataset/cdisc/sdtm/v3-4/cv/cvstat"
        },
        {
            "from": "http://id.d4k.dk/dataset/cdisc/sdtm/v3-4/cv",
            "to": "http://id.d4k.dk/dataset/cdisc/sdtm/v3-4/cv/cvreasnd"
        },
        {
            "from": "http://id.d4k.dk/dataset/cdisc/sdtm/v3-4/cv",
            "to": "http://id.d4k.dk/dataset/cdisc/sdtm/v3-4/cv/cvloc"
        },
        {
            "from": "http://id.d4k.dk/dataset/cdisc/sdtm/v3-4/cv",
            "to": "http://id.d4k.dk/dataset/cdisc/sdtm/v3-4/cv/cvlat"
        },
        {
            "from": "http://id.d4k.dk/dataset/cdisc/sdtm/v3-4/cv",
            "to": "http://id.d4k.dk/dataset/cdisc/sdtm/v3-4/cv/cvdir"
        },
        {
            "from": "http://id.d4k.dk/dataset/cdisc/sdtm/v3-4/cv",
            "to": "http://id.d4k.dk/dataset/cdisc/sdtm/v3-4/cv/cvmethod"
        },
        {
            "from": "http://id.d4k.dk/dataset/cdisc/sdtm/v3-4/cv",
            "to": "http://id.d4k.dk/dataset/cdisc/sdtm/v3-4/cv/cvlobxfl"
        },
        {
            "from": "http://id.d4k.dk/dataset/cdisc/sdtm/v3-4/cv",
            "to": "http://id.d4k.dk/dataset/cdisc/sdtm/v3-4/cv/cvblfl"
        },
        {
            "from": "http://id.d4k.dk/dataset/cdisc/sdtm/v3-4/cv",
            "to": "http://id.d4k.dk/dataset/cdisc/sdtm/v3-4/cv/cvdrvfl"
        },
        {
            "from": "http://id.d4k.dk/dataset/cdisc/sdtm/v3-4/cv",
            "to": "http://id.d4k.dk/dataset/cdisc/sdtm/v3-4/cv/cveval"
        },
        {
            "from": "http://id.d4k.dk/dataset/cdisc/sdtm/v3-4/cv",
            "to": "http://id.d4k.dk/dataset/cdisc/sdtm/v3-4/cv/cvevalid"
        },
        {
            "from": "http://id.d4k.dk/dataset/cdisc/sdtm/v3-4/cv",
            "to": "http://id.d4k.dk/dataset/cdisc/sdtm/v3-4/cv/visitnum"
        },
        {
            "from": "http://id.d4k.dk/dataset/cdisc/sdtm/v3-4/cv",
            "to": "http://id.d4k.dk/dataset/cdisc/sdtm/v3-4/cv/visit"
        },
        {
            "from": "http://id.d4k.dk/dataset/cdisc/sdtm/v3-4/cv",
            "to": "http://id.d4k.dk/dataset/cdisc/sdtm/v3-4/cv/visitdy"
        },
        {
            "from": "http://id.d4k.dk/dataset/cdisc/sdtm/v3-4/cv",
            "to": "http://id.d4k.dk/dataset/cdisc/sdtm/v3-4/cv/taetord"
        },
        {
            "from": "http://id.d4k.dk/dataset/cdisc/sdtm/v3-4/cv",
            "to": "http://id.d4k.dk/dataset/cdisc/sdtm/v3-4/cv/epoch"
        },
        {
            "from": "http://id.d4k.dk/dataset/cdisc/sdtm/v3-4/cv",
            "to": "http://id.d4k.dk/dataset/cdisc/sdtm/v3-4/cv/cvdtc"
        },
        {
            "from": "http://id.d4k.dk/dataset/cdisc/sdtm/v3-4/cv",
            "to": "http://id.d4k.dk/dataset/cdisc/sdtm/v3-4/cv/cvdy"
        },
        {
            "from": "http://id.d4k.dk/dataset/cdisc/sdtm/v3-4/cv",
            "to": "http://id.d4k.dk/dataset/cdisc/sdtm/v3-4/cv/cvtpt"
        },
        {
            "from": "http://id.d4k.dk/dataset/cdisc/sdtm/v3-4/cv",
            "to": "http://id.d4k.dk/dataset/cdisc/sdtm/v3-4/cv/cvtptnum"
        },
        {
            "from": "http://id.d4k.dk/dataset/cdisc/sdtm/v3-4/cv",
            "to": "http://id.d4k.dk/dataset/cdisc/sdtm/v3-4/cv/cveltm"
        },
        {
            "from": "http://id.d4k.dk/dataset/cdisc/sdtm/v3-4/cv",
            "to": "http://id.d4k.dk/dataset/cdisc/sdtm/v3-4/cv/cvtptref"
        },
        {
            "from": "http://id.d4k.dk/dataset/cdisc/sdtm/v3-4/cv",
            "to": "http://id.d4k.dk/dataset/cdisc/sdtm/v3-4/cv/cvrftdtc"
        },
        {
            "from": "http://id.d4k.dk/dataset/cdisc/sdtm/v3-4/da",
            "to": "http://id.d4k.dk/dataset/cdisc/sdtm/v3-4/da/studyid"
        },
        {
            "from": "http://id.d4k.dk/dataset/cdisc/sdtm/v3-4/da",
            "to": "http://id.d4k.dk/dataset/cdisc/sdtm/v3-4/da/domain"
        },
        {
            "from": "http://id.d4k.dk/dataset/cdisc/sdtm/v3-4/da",
            "to": "http://id.d4k.dk/dataset/cdisc/sdtm/v3-4/da/usubjid"
        },
        {
            "from": "http://id.d4k.dk/dataset/cdisc/sdtm/v3-4/da",
            "to": "http://id.d4k.dk/dataset/cdisc/sdtm/v3-4/da/daseq"
        },
        {
            "from": "http://id.d4k.dk/dataset/cdisc/sdtm/v3-4/da",
            "to": "http://id.d4k.dk/dataset/cdisc/sdtm/v3-4/da/dagrpid"
        },
        {
            "from": "http://id.d4k.dk/dataset/cdisc/sdtm/v3-4/da",
            "to": "http://id.d4k.dk/dataset/cdisc/sdtm/v3-4/da/darefid"
        },
        {
            "from": "http://id.d4k.dk/dataset/cdisc/sdtm/v3-4/da",
            "to": "http://id.d4k.dk/dataset/cdisc/sdtm/v3-4/da/daspid"
        },
        {
            "from": "http://id.d4k.dk/dataset/cdisc/sdtm/v3-4/da",
            "to": "http://id.d4k.dk/dataset/cdisc/sdtm/v3-4/da/dalnkid"
        },
        {
            "from": "http://id.d4k.dk/dataset/cdisc/sdtm/v3-4/da",
            "to": "http://id.d4k.dk/dataset/cdisc/sdtm/v3-4/da/dalnkgrp"
        },
        {
            "from": "http://id.d4k.dk/dataset/cdisc/sdtm/v3-4/da",
            "to": "http://id.d4k.dk/dataset/cdisc/sdtm/v3-4/da/datestcd"
        },
        {
            "from": "http://id.d4k.dk/dataset/cdisc/sdtm/v3-4/da",
            "to": "http://id.d4k.dk/dataset/cdisc/sdtm/v3-4/da/datest"
        },
        {
            "from": "http://id.d4k.dk/dataset/cdisc/sdtm/v3-4/da",
            "to": "http://id.d4k.dk/dataset/cdisc/sdtm/v3-4/da/dacat"
        },
        {
            "from": "http://id.d4k.dk/dataset/cdisc/sdtm/v3-4/da",
            "to": "http://id.d4k.dk/dataset/cdisc/sdtm/v3-4/da/dascat"
        },
        {
            "from": "http://id.d4k.dk/dataset/cdisc/sdtm/v3-4/da",
            "to": "http://id.d4k.dk/dataset/cdisc/sdtm/v3-4/da/daorres"
        },
        {
            "from": "http://id.d4k.dk/dataset/cdisc/sdtm/v3-4/da",
            "to": "http://id.d4k.dk/dataset/cdisc/sdtm/v3-4/da/daorresu"
        },
        {
            "from": "http://id.d4k.dk/dataset/cdisc/sdtm/v3-4/da",
            "to": "http://id.d4k.dk/dataset/cdisc/sdtm/v3-4/da/dastresc"
        },
        {
            "from": "http://id.d4k.dk/dataset/cdisc/sdtm/v3-4/da",
            "to": "http://id.d4k.dk/dataset/cdisc/sdtm/v3-4/da/dastresn"
        },
        {
            "from": "http://id.d4k.dk/dataset/cdisc/sdtm/v3-4/da",
            "to": "http://id.d4k.dk/dataset/cdisc/sdtm/v3-4/da/dastresu"
        },
        {
            "from": "http://id.d4k.dk/dataset/cdisc/sdtm/v3-4/da",
            "to": "http://id.d4k.dk/dataset/cdisc/sdtm/v3-4/da/dastat"
        },
        {
            "from": "http://id.d4k.dk/dataset/cdisc/sdtm/v3-4/da",
            "to": "http://id.d4k.dk/dataset/cdisc/sdtm/v3-4/da/dareasnd"
        },
        {
            "from": "http://id.d4k.dk/dataset/cdisc/sdtm/v3-4/da",
            "to": "http://id.d4k.dk/dataset/cdisc/sdtm/v3-4/da/visitnum"
        },
        {
            "from": "http://id.d4k.dk/dataset/cdisc/sdtm/v3-4/da",
            "to": "http://id.d4k.dk/dataset/cdisc/sdtm/v3-4/da/visit"
        },
        {
            "from": "http://id.d4k.dk/dataset/cdisc/sdtm/v3-4/da",
            "to": "http://id.d4k.dk/dataset/cdisc/sdtm/v3-4/da/visitdy"
        },
        {
            "from": "http://id.d4k.dk/dataset/cdisc/sdtm/v3-4/da",
            "to": "http://id.d4k.dk/dataset/cdisc/sdtm/v3-4/da/taetord"
        },
        {
            "from": "http://id.d4k.dk/dataset/cdisc/sdtm/v3-4/da",
            "to": "http://id.d4k.dk/dataset/cdisc/sdtm/v3-4/da/epoch"
        },
        {
            "from": "http://id.d4k.dk/dataset/cdisc/sdtm/v3-4/da",
            "to": "http://id.d4k.dk/dataset/cdisc/sdtm/v3-4/da/dadtc"
        },
        {
            "from": "http://id.d4k.dk/dataset/cdisc/sdtm/v3-4/da",
            "to": "http://id.d4k.dk/dataset/cdisc/sdtm/v3-4/da/dady"
        },
        {
            "from": "http://id.d4k.dk/dataset/cdisc/sdtm/v3-4/dd",
            "to": "http://id.d4k.dk/dataset/cdisc/sdtm/v3-4/dd/studyid"
        },
        {
            "from": "http://id.d4k.dk/dataset/cdisc/sdtm/v3-4/dd",
            "to": "http://id.d4k.dk/dataset/cdisc/sdtm/v3-4/dd/domain"
        },
        {
            "from": "http://id.d4k.dk/dataset/cdisc/sdtm/v3-4/dd",
            "to": "http://id.d4k.dk/dataset/cdisc/sdtm/v3-4/dd/usubjid"
        },
        {
            "from": "http://id.d4k.dk/dataset/cdisc/sdtm/v3-4/dd",
            "to": "http://id.d4k.dk/dataset/cdisc/sdtm/v3-4/dd/ddseq"
        },
        {
            "from": "http://id.d4k.dk/dataset/cdisc/sdtm/v3-4/dd",
            "to": "http://id.d4k.dk/dataset/cdisc/sdtm/v3-4/dd/ddtestcd"
        },
        {
            "from": "http://id.d4k.dk/dataset/cdisc/sdtm/v3-4/dd",
            "to": "http://id.d4k.dk/dataset/cdisc/sdtm/v3-4/dd/ddtest"
        },
        {
            "from": "http://id.d4k.dk/dataset/cdisc/sdtm/v3-4/dd",
            "to": "http://id.d4k.dk/dataset/cdisc/sdtm/v3-4/dd/ddorres"
        },
        {
            "from": "http://id.d4k.dk/dataset/cdisc/sdtm/v3-4/dd",
            "to": "http://id.d4k.dk/dataset/cdisc/sdtm/v3-4/dd/ddstresc"
        },
        {
            "from": "http://id.d4k.dk/dataset/cdisc/sdtm/v3-4/dd",
            "to": "http://id.d4k.dk/dataset/cdisc/sdtm/v3-4/dd/ddrescat"
        },
        {
            "from": "http://id.d4k.dk/dataset/cdisc/sdtm/v3-4/dd",
            "to": "http://id.d4k.dk/dataset/cdisc/sdtm/v3-4/dd/ddeval"
        },
        {
            "from": "http://id.d4k.dk/dataset/cdisc/sdtm/v3-4/dd",
            "to": "http://id.d4k.dk/dataset/cdisc/sdtm/v3-4/dd/dddtc"
        },
        {
            "from": "http://id.d4k.dk/dataset/cdisc/sdtm/v3-4/dd",
            "to": "http://id.d4k.dk/dataset/cdisc/sdtm/v3-4/dd/dddy"
        },
        {
            "from": "http://id.d4k.dk/dataset/cdisc/sdtm/v3-4/eg",
            "to": "http://id.d4k.dk/dataset/cdisc/sdtm/v3-4/eg/studyid"
        },
        {
            "from": "http://id.d4k.dk/dataset/cdisc/sdtm/v3-4/eg",
            "to": "http://id.d4k.dk/dataset/cdisc/sdtm/v3-4/eg/domain"
        },
        {
            "from": "http://id.d4k.dk/dataset/cdisc/sdtm/v3-4/eg",
            "to": "http://id.d4k.dk/dataset/cdisc/sdtm/v3-4/eg/usubjid"
        },
        {
            "from": "http://id.d4k.dk/dataset/cdisc/sdtm/v3-4/eg",
            "to": "http://id.d4k.dk/dataset/cdisc/sdtm/v3-4/eg/spdevid"
        },
        {
            "from": "http://id.d4k.dk/dataset/cdisc/sdtm/v3-4/eg",
            "to": "http://id.d4k.dk/dataset/cdisc/sdtm/v3-4/eg/egseq"
        },
        {
            "from": "http://id.d4k.dk/dataset/cdisc/sdtm/v3-4/eg",
            "to": "http://id.d4k.dk/dataset/cdisc/sdtm/v3-4/eg/eggrpid"
        },
        {
            "from": "http://id.d4k.dk/dataset/cdisc/sdtm/v3-4/eg",
            "to": "http://id.d4k.dk/dataset/cdisc/sdtm/v3-4/eg/egrefid"
        },
        {
            "from": "http://id.d4k.dk/dataset/cdisc/sdtm/v3-4/eg",
            "to": "http://id.d4k.dk/dataset/cdisc/sdtm/v3-4/eg/egspid"
        },
        {
            "from": "http://id.d4k.dk/dataset/cdisc/sdtm/v3-4/eg",
            "to": "http://id.d4k.dk/dataset/cdisc/sdtm/v3-4/eg/egbeatno"
        },
        {
            "from": "http://id.d4k.dk/dataset/cdisc/sdtm/v3-4/eg",
            "to": "http://id.d4k.dk/dataset/cdisc/sdtm/v3-4/eg/egtestcd"
        },
        {
            "from": "http://id.d4k.dk/dataset/cdisc/sdtm/v3-4/eg",
            "to": "http://id.d4k.dk/dataset/cdisc/sdtm/v3-4/eg/egtest"
        },
        {
            "from": "http://id.d4k.dk/dataset/cdisc/sdtm/v3-4/eg",
            "to": "http://id.d4k.dk/dataset/cdisc/sdtm/v3-4/eg/egcat"
        },
        {
            "from": "http://id.d4k.dk/dataset/cdisc/sdtm/v3-4/eg",
            "to": "http://id.d4k.dk/dataset/cdisc/sdtm/v3-4/eg/egscat"
        },
        {
            "from": "http://id.d4k.dk/dataset/cdisc/sdtm/v3-4/eg",
            "to": "http://id.d4k.dk/dataset/cdisc/sdtm/v3-4/eg/egpos"
        },
        {
            "from": "http://id.d4k.dk/dataset/cdisc/sdtm/v3-4/eg",
            "to": "http://id.d4k.dk/dataset/cdisc/sdtm/v3-4/eg/egorres"
        },
        {
            "from": "http://id.d4k.dk/dataset/cdisc/sdtm/v3-4/eg",
            "to": "http://id.d4k.dk/dataset/cdisc/sdtm/v3-4/eg/egorresu"
        },
        {
            "from": "http://id.d4k.dk/dataset/cdisc/sdtm/v3-4/eg",
            "to": "http://id.d4k.dk/dataset/cdisc/sdtm/v3-4/eg/egstresc"
        },
        {
            "from": "http://id.d4k.dk/dataset/cdisc/sdtm/v3-4/eg",
            "to": "http://id.d4k.dk/dataset/cdisc/sdtm/v3-4/eg/egstresn"
        },
        {
            "from": "http://id.d4k.dk/dataset/cdisc/sdtm/v3-4/eg",
            "to": "http://id.d4k.dk/dataset/cdisc/sdtm/v3-4/eg/egstresu"
        },
        {
            "from": "http://id.d4k.dk/dataset/cdisc/sdtm/v3-4/eg",
            "to": "http://id.d4k.dk/dataset/cdisc/sdtm/v3-4/eg/egstat"
        },
        {
            "from": "http://id.d4k.dk/dataset/cdisc/sdtm/v3-4/eg",
            "to": "http://id.d4k.dk/dataset/cdisc/sdtm/v3-4/eg/egreasnd"
        },
        {
            "from": "http://id.d4k.dk/dataset/cdisc/sdtm/v3-4/eg",
            "to": "http://id.d4k.dk/dataset/cdisc/sdtm/v3-4/eg/egxfn"
        },
        {
            "from": "http://id.d4k.dk/dataset/cdisc/sdtm/v3-4/eg",
            "to": "http://id.d4k.dk/dataset/cdisc/sdtm/v3-4/eg/egnam"
        },
        {
            "from": "http://id.d4k.dk/dataset/cdisc/sdtm/v3-4/eg",
            "to": "http://id.d4k.dk/dataset/cdisc/sdtm/v3-4/eg/egmethod"
        },
        {
            "from": "http://id.d4k.dk/dataset/cdisc/sdtm/v3-4/eg",
            "to": "http://id.d4k.dk/dataset/cdisc/sdtm/v3-4/eg/eglead"
        },
        {
            "from": "http://id.d4k.dk/dataset/cdisc/sdtm/v3-4/eg",
            "to": "http://id.d4k.dk/dataset/cdisc/sdtm/v3-4/eg/eglobxfl"
        },
        {
            "from": "http://id.d4k.dk/dataset/cdisc/sdtm/v3-4/eg",
            "to": "http://id.d4k.dk/dataset/cdisc/sdtm/v3-4/eg/egblfl"
        },
        {
            "from": "http://id.d4k.dk/dataset/cdisc/sdtm/v3-4/eg",
            "to": "http://id.d4k.dk/dataset/cdisc/sdtm/v3-4/eg/egdrvfl"
        },
        {
            "from": "http://id.d4k.dk/dataset/cdisc/sdtm/v3-4/eg",
            "to": "http://id.d4k.dk/dataset/cdisc/sdtm/v3-4/eg/egeval"
        },
        {
            "from": "http://id.d4k.dk/dataset/cdisc/sdtm/v3-4/eg",
            "to": "http://id.d4k.dk/dataset/cdisc/sdtm/v3-4/eg/egevalid"
        },
        {
            "from": "http://id.d4k.dk/dataset/cdisc/sdtm/v3-4/eg",
            "to": "http://id.d4k.dk/dataset/cdisc/sdtm/v3-4/eg/egclsig"
        },
        {
            "from": "http://id.d4k.dk/dataset/cdisc/sdtm/v3-4/eg",
            "to": "http://id.d4k.dk/dataset/cdisc/sdtm/v3-4/eg/egrepnum"
        },
        {
            "from": "http://id.d4k.dk/dataset/cdisc/sdtm/v3-4/eg",
            "to": "http://id.d4k.dk/dataset/cdisc/sdtm/v3-4/eg/visitnum"
        },
        {
            "from": "http://id.d4k.dk/dataset/cdisc/sdtm/v3-4/eg",
            "to": "http://id.d4k.dk/dataset/cdisc/sdtm/v3-4/eg/visit"
        },
        {
            "from": "http://id.d4k.dk/dataset/cdisc/sdtm/v3-4/eg",
            "to": "http://id.d4k.dk/dataset/cdisc/sdtm/v3-4/eg/visitdy"
        },
        {
            "from": "http://id.d4k.dk/dataset/cdisc/sdtm/v3-4/eg",
            "to": "http://id.d4k.dk/dataset/cdisc/sdtm/v3-4/eg/taetord"
        },
        {
            "from": "http://id.d4k.dk/dataset/cdisc/sdtm/v3-4/eg",
            "to": "http://id.d4k.dk/dataset/cdisc/sdtm/v3-4/eg/epoch"
        },
        {
            "from": "http://id.d4k.dk/dataset/cdisc/sdtm/v3-4/eg",
            "to": "http://id.d4k.dk/dataset/cdisc/sdtm/v3-4/eg/egdtc"
        },
        {
            "from": "http://id.d4k.dk/dataset/cdisc/sdtm/v3-4/eg",
            "to": "http://id.d4k.dk/dataset/cdisc/sdtm/v3-4/eg/egdy"
        },
        {
            "from": "http://id.d4k.dk/dataset/cdisc/sdtm/v3-4/eg",
            "to": "http://id.d4k.dk/dataset/cdisc/sdtm/v3-4/eg/egtpt"
        },
        {
            "from": "http://id.d4k.dk/dataset/cdisc/sdtm/v3-4/eg",
            "to": "http://id.d4k.dk/dataset/cdisc/sdtm/v3-4/eg/egtptnum"
        },
        {
            "from": "http://id.d4k.dk/dataset/cdisc/sdtm/v3-4/eg",
            "to": "http://id.d4k.dk/dataset/cdisc/sdtm/v3-4/eg/egeltm"
        },
        {
            "from": "http://id.d4k.dk/dataset/cdisc/sdtm/v3-4/eg",
            "to": "http://id.d4k.dk/dataset/cdisc/sdtm/v3-4/eg/egtptref"
        },
        {
            "from": "http://id.d4k.dk/dataset/cdisc/sdtm/v3-4/eg",
            "to": "http://id.d4k.dk/dataset/cdisc/sdtm/v3-4/eg/egrftdtc"
        },
        {
            "from": "http://id.d4k.dk/dataset/cdisc/sdtm/v3-4/ft",
            "to": "http://id.d4k.dk/dataset/cdisc/sdtm/v3-4/ft/studyid"
        },
        {
            "from": "http://id.d4k.dk/dataset/cdisc/sdtm/v3-4/ft",
            "to": "http://id.d4k.dk/dataset/cdisc/sdtm/v3-4/ft/domain"
        },
        {
            "from": "http://id.d4k.dk/dataset/cdisc/sdtm/v3-4/ft",
            "to": "http://id.d4k.dk/dataset/cdisc/sdtm/v3-4/ft/usubjid"
        },
        {
            "from": "http://id.d4k.dk/dataset/cdisc/sdtm/v3-4/ft",
            "to": "http://id.d4k.dk/dataset/cdisc/sdtm/v3-4/ft/ftseq"
        },
        {
            "from": "http://id.d4k.dk/dataset/cdisc/sdtm/v3-4/ft",
            "to": "http://id.d4k.dk/dataset/cdisc/sdtm/v3-4/ft/ftgrpid"
        },
        {
            "from": "http://id.d4k.dk/dataset/cdisc/sdtm/v3-4/ft",
            "to": "http://id.d4k.dk/dataset/cdisc/sdtm/v3-4/ft/ftrefid"
        },
        {
            "from": "http://id.d4k.dk/dataset/cdisc/sdtm/v3-4/ft",
            "to": "http://id.d4k.dk/dataset/cdisc/sdtm/v3-4/ft/ftspid"
        },
        {
            "from": "http://id.d4k.dk/dataset/cdisc/sdtm/v3-4/ft",
            "to": "http://id.d4k.dk/dataset/cdisc/sdtm/v3-4/ft/fttestcd"
        },
        {
            "from": "http://id.d4k.dk/dataset/cdisc/sdtm/v3-4/ft",
            "to": "http://id.d4k.dk/dataset/cdisc/sdtm/v3-4/ft/fttest"
        },
        {
            "from": "http://id.d4k.dk/dataset/cdisc/sdtm/v3-4/ft",
            "to": "http://id.d4k.dk/dataset/cdisc/sdtm/v3-4/ft/ftcat"
        },
        {
            "from": "http://id.d4k.dk/dataset/cdisc/sdtm/v3-4/ft",
            "to": "http://id.d4k.dk/dataset/cdisc/sdtm/v3-4/ft/ftscat"
        },
        {
            "from": "http://id.d4k.dk/dataset/cdisc/sdtm/v3-4/ft",
            "to": "http://id.d4k.dk/dataset/cdisc/sdtm/v3-4/ft/ftpos"
        },
        {
            "from": "http://id.d4k.dk/dataset/cdisc/sdtm/v3-4/ft",
            "to": "http://id.d4k.dk/dataset/cdisc/sdtm/v3-4/ft/ftorres"
        },
        {
            "from": "http://id.d4k.dk/dataset/cdisc/sdtm/v3-4/ft",
            "to": "http://id.d4k.dk/dataset/cdisc/sdtm/v3-4/ft/ftorresu"
        },
        {
            "from": "http://id.d4k.dk/dataset/cdisc/sdtm/v3-4/ft",
            "to": "http://id.d4k.dk/dataset/cdisc/sdtm/v3-4/ft/ftstresc"
        },
        {
            "from": "http://id.d4k.dk/dataset/cdisc/sdtm/v3-4/ft",
            "to": "http://id.d4k.dk/dataset/cdisc/sdtm/v3-4/ft/ftstresn"
        },
        {
            "from": "http://id.d4k.dk/dataset/cdisc/sdtm/v3-4/ft",
            "to": "http://id.d4k.dk/dataset/cdisc/sdtm/v3-4/ft/ftstresu"
        },
        {
            "from": "http://id.d4k.dk/dataset/cdisc/sdtm/v3-4/ft",
            "to": "http://id.d4k.dk/dataset/cdisc/sdtm/v3-4/ft/ftstat"
        },
        {
            "from": "http://id.d4k.dk/dataset/cdisc/sdtm/v3-4/ft",
            "to": "http://id.d4k.dk/dataset/cdisc/sdtm/v3-4/ft/ftreasnd"
        },
        {
            "from": "http://id.d4k.dk/dataset/cdisc/sdtm/v3-4/ft",
            "to": "http://id.d4k.dk/dataset/cdisc/sdtm/v3-4/ft/ftxfn"
        },
        {
            "from": "http://id.d4k.dk/dataset/cdisc/sdtm/v3-4/ft",
            "to": "http://id.d4k.dk/dataset/cdisc/sdtm/v3-4/ft/ftnam"
        },
        {
            "from": "http://id.d4k.dk/dataset/cdisc/sdtm/v3-4/ft",
            "to": "http://id.d4k.dk/dataset/cdisc/sdtm/v3-4/ft/ftmethod"
        },
        {
            "from": "http://id.d4k.dk/dataset/cdisc/sdtm/v3-4/ft",
            "to": "http://id.d4k.dk/dataset/cdisc/sdtm/v3-4/ft/ftlobxfl"
        },
        {
            "from": "http://id.d4k.dk/dataset/cdisc/sdtm/v3-4/ft",
            "to": "http://id.d4k.dk/dataset/cdisc/sdtm/v3-4/ft/ftblfl"
        },
        {
            "from": "http://id.d4k.dk/dataset/cdisc/sdtm/v3-4/ft",
            "to": "http://id.d4k.dk/dataset/cdisc/sdtm/v3-4/ft/ftdrvfl"
        },
        {
            "from": "http://id.d4k.dk/dataset/cdisc/sdtm/v3-4/ft",
            "to": "http://id.d4k.dk/dataset/cdisc/sdtm/v3-4/ft/ftrepnum"
        },
        {
            "from": "http://id.d4k.dk/dataset/cdisc/sdtm/v3-4/ft",
            "to": "http://id.d4k.dk/dataset/cdisc/sdtm/v3-4/ft/visitnum"
        },
        {
            "from": "http://id.d4k.dk/dataset/cdisc/sdtm/v3-4/ft",
            "to": "http://id.d4k.dk/dataset/cdisc/sdtm/v3-4/ft/visit"
        },
        {
            "from": "http://id.d4k.dk/dataset/cdisc/sdtm/v3-4/ft",
            "to": "http://id.d4k.dk/dataset/cdisc/sdtm/v3-4/ft/visitdy"
        },
        {
            "from": "http://id.d4k.dk/dataset/cdisc/sdtm/v3-4/ft",
            "to": "http://id.d4k.dk/dataset/cdisc/sdtm/v3-4/ft/taetord"
        },
        {
            "from": "http://id.d4k.dk/dataset/cdisc/sdtm/v3-4/ft",
            "to": "http://id.d4k.dk/dataset/cdisc/sdtm/v3-4/ft/epoch"
        },
        {
            "from": "http://id.d4k.dk/dataset/cdisc/sdtm/v3-4/ft",
            "to": "http://id.d4k.dk/dataset/cdisc/sdtm/v3-4/ft/ftdtc"
        },
        {
            "from": "http://id.d4k.dk/dataset/cdisc/sdtm/v3-4/ft",
            "to": "http://id.d4k.dk/dataset/cdisc/sdtm/v3-4/ft/ftdy"
        },
        {
            "from": "http://id.d4k.dk/dataset/cdisc/sdtm/v3-4/ft",
            "to": "http://id.d4k.dk/dataset/cdisc/sdtm/v3-4/ft/fttpt"
        },
        {
            "from": "http://id.d4k.dk/dataset/cdisc/sdtm/v3-4/ft",
            "to": "http://id.d4k.dk/dataset/cdisc/sdtm/v3-4/ft/fttptnum"
        },
        {
            "from": "http://id.d4k.dk/dataset/cdisc/sdtm/v3-4/ft",
            "to": "http://id.d4k.dk/dataset/cdisc/sdtm/v3-4/ft/fteltm"
        },
        {
            "from": "http://id.d4k.dk/dataset/cdisc/sdtm/v3-4/ft",
            "to": "http://id.d4k.dk/dataset/cdisc/sdtm/v3-4/ft/fttptref"
        },
        {
            "from": "http://id.d4k.dk/dataset/cdisc/sdtm/v3-4/ft",
            "to": "http://id.d4k.dk/dataset/cdisc/sdtm/v3-4/ft/ftrftdtc"
        },
        {
            "from": "http://id.d4k.dk/dataset/cdisc/sdtm/v3-4/gf",
            "to": "http://id.d4k.dk/dataset/cdisc/sdtm/v3-4/gf/studyid"
        },
        {
            "from": "http://id.d4k.dk/dataset/cdisc/sdtm/v3-4/gf",
            "to": "http://id.d4k.dk/dataset/cdisc/sdtm/v3-4/gf/domain"
        },
        {
            "from": "http://id.d4k.dk/dataset/cdisc/sdtm/v3-4/gf",
            "to": "http://id.d4k.dk/dataset/cdisc/sdtm/v3-4/gf/usubjid"
        },
        {
            "from": "http://id.d4k.dk/dataset/cdisc/sdtm/v3-4/gf",
            "to": "http://id.d4k.dk/dataset/cdisc/sdtm/v3-4/gf/spdevid"
        },
        {
            "from": "http://id.d4k.dk/dataset/cdisc/sdtm/v3-4/gf",
            "to": "http://id.d4k.dk/dataset/cdisc/sdtm/v3-4/gf/nhoid"
        },
        {
            "from": "http://id.d4k.dk/dataset/cdisc/sdtm/v3-4/gf",
            "to": "http://id.d4k.dk/dataset/cdisc/sdtm/v3-4/gf/gfseq"
        },
        {
            "from": "http://id.d4k.dk/dataset/cdisc/sdtm/v3-4/gf",
            "to": "http://id.d4k.dk/dataset/cdisc/sdtm/v3-4/gf/gfgrpid"
        },
        {
            "from": "http://id.d4k.dk/dataset/cdisc/sdtm/v3-4/gf",
            "to": "http://id.d4k.dk/dataset/cdisc/sdtm/v3-4/gf/gfrefid"
        },
        {
            "from": "http://id.d4k.dk/dataset/cdisc/sdtm/v3-4/gf",
            "to": "http://id.d4k.dk/dataset/cdisc/sdtm/v3-4/gf/gfspid"
        },
        {
            "from": "http://id.d4k.dk/dataset/cdisc/sdtm/v3-4/gf",
            "to": "http://id.d4k.dk/dataset/cdisc/sdtm/v3-4/gf/gflnkid"
        },
        {
            "from": "http://id.d4k.dk/dataset/cdisc/sdtm/v3-4/gf",
            "to": "http://id.d4k.dk/dataset/cdisc/sdtm/v3-4/gf/gflnkgrp"
        },
        {
            "from": "http://id.d4k.dk/dataset/cdisc/sdtm/v3-4/gf",
            "to": "http://id.d4k.dk/dataset/cdisc/sdtm/v3-4/gf/gftestcd"
        },
        {
            "from": "http://id.d4k.dk/dataset/cdisc/sdtm/v3-4/gf",
            "to": "http://id.d4k.dk/dataset/cdisc/sdtm/v3-4/gf/gftest"
        },
        {
            "from": "http://id.d4k.dk/dataset/cdisc/sdtm/v3-4/gf",
            "to": "http://id.d4k.dk/dataset/cdisc/sdtm/v3-4/gf/gftstdtl"
        },
        {
            "from": "http://id.d4k.dk/dataset/cdisc/sdtm/v3-4/gf",
            "to": "http://id.d4k.dk/dataset/cdisc/sdtm/v3-4/gf/gfcat"
        },
        {
            "from": "http://id.d4k.dk/dataset/cdisc/sdtm/v3-4/gf",
            "to": "http://id.d4k.dk/dataset/cdisc/sdtm/v3-4/gf/gfscat"
        },
        {
            "from": "http://id.d4k.dk/dataset/cdisc/sdtm/v3-4/gf",
            "to": "http://id.d4k.dk/dataset/cdisc/sdtm/v3-4/gf/gforres"
        },
        {
            "from": "http://id.d4k.dk/dataset/cdisc/sdtm/v3-4/gf",
            "to": "http://id.d4k.dk/dataset/cdisc/sdtm/v3-4/gf/gforresu"
        },
        {
            "from": "http://id.d4k.dk/dataset/cdisc/sdtm/v3-4/gf",
            "to": "http://id.d4k.dk/dataset/cdisc/sdtm/v3-4/gf/gforref"
        },
        {
            "from": "http://id.d4k.dk/dataset/cdisc/sdtm/v3-4/gf",
            "to": "http://id.d4k.dk/dataset/cdisc/sdtm/v3-4/gf/gfstresc"
        },
        {
            "from": "http://id.d4k.dk/dataset/cdisc/sdtm/v3-4/gf",
            "to": "http://id.d4k.dk/dataset/cdisc/sdtm/v3-4/gf/gfstresn"
        },
        {
            "from": "http://id.d4k.dk/dataset/cdisc/sdtm/v3-4/gf",
            "to": "http://id.d4k.dk/dataset/cdisc/sdtm/v3-4/gf/gfstresu"
        },
        {
            "from": "http://id.d4k.dk/dataset/cdisc/sdtm/v3-4/gf",
            "to": "http://id.d4k.dk/dataset/cdisc/sdtm/v3-4/gf/gfstrefc"
        },
        {
            "from": "http://id.d4k.dk/dataset/cdisc/sdtm/v3-4/gf",
            "to": "http://id.d4k.dk/dataset/cdisc/sdtm/v3-4/gf/gfstrefn"
        },
        {
            "from": "http://id.d4k.dk/dataset/cdisc/sdtm/v3-4/gf",
            "to": "http://id.d4k.dk/dataset/cdisc/sdtm/v3-4/gf/gfrescat"
        },
        {
            "from": "http://id.d4k.dk/dataset/cdisc/sdtm/v3-4/gf",
            "to": "http://id.d4k.dk/dataset/cdisc/sdtm/v3-4/gf/gfinhert"
        },
        {
            "from": "http://id.d4k.dk/dataset/cdisc/sdtm/v3-4/gf",
            "to": "http://id.d4k.dk/dataset/cdisc/sdtm/v3-4/gf/gfgenref"
        },
        {
            "from": "http://id.d4k.dk/dataset/cdisc/sdtm/v3-4/gf",
            "to": "http://id.d4k.dk/dataset/cdisc/sdtm/v3-4/gf/gfchrom"
        },
        {
            "from": "http://id.d4k.dk/dataset/cdisc/sdtm/v3-4/gf",
            "to": "http://id.d4k.dk/dataset/cdisc/sdtm/v3-4/gf/gfsym"
        },
        {
            "from": "http://id.d4k.dk/dataset/cdisc/sdtm/v3-4/gf",
            "to": "http://id.d4k.dk/dataset/cdisc/sdtm/v3-4/gf/gfsymtyp"
        },
        {
            "from": "http://id.d4k.dk/dataset/cdisc/sdtm/v3-4/gf",
            "to": "http://id.d4k.dk/dataset/cdisc/sdtm/v3-4/gf/gfgenloc"
        },
        {
            "from": "http://id.d4k.dk/dataset/cdisc/sdtm/v3-4/gf",
            "to": "http://id.d4k.dk/dataset/cdisc/sdtm/v3-4/gf/gfgensr"
        },
        {
            "from": "http://id.d4k.dk/dataset/cdisc/sdtm/v3-4/gf",
            "to": "http://id.d4k.dk/dataset/cdisc/sdtm/v3-4/gf/gfseqid"
        },
        {
            "from": "http://id.d4k.dk/dataset/cdisc/sdtm/v3-4/gf",
            "to": "http://id.d4k.dk/dataset/cdisc/sdtm/v3-4/gf/gfpvrid"
        },
        {
            "from": "http://id.d4k.dk/dataset/cdisc/sdtm/v3-4/gf",
            "to": "http://id.d4k.dk/dataset/cdisc/sdtm/v3-4/gf/gfcopyid"
        },
        {
            "from": "http://id.d4k.dk/dataset/cdisc/sdtm/v3-4/gf",
            "to": "http://id.d4k.dk/dataset/cdisc/sdtm/v3-4/gf/gfstat"
        },
        {
            "from": "http://id.d4k.dk/dataset/cdisc/sdtm/v3-4/gf",
            "to": "http://id.d4k.dk/dataset/cdisc/sdtm/v3-4/gf/gfreasnd"
        },
        {
            "from": "http://id.d4k.dk/dataset/cdisc/sdtm/v3-4/gf",
            "to": "http://id.d4k.dk/dataset/cdisc/sdtm/v3-4/gf/gfxfn"
        },
        {
            "from": "http://id.d4k.dk/dataset/cdisc/sdtm/v3-4/gf",
            "to": "http://id.d4k.dk/dataset/cdisc/sdtm/v3-4/gf/gfnam"
        },
        {
            "from": "http://id.d4k.dk/dataset/cdisc/sdtm/v3-4/gf",
            "to": "http://id.d4k.dk/dataset/cdisc/sdtm/v3-4/gf/gfspec"
        },
        {
            "from": "http://id.d4k.dk/dataset/cdisc/sdtm/v3-4/gf",
            "to": "http://id.d4k.dk/dataset/cdisc/sdtm/v3-4/gf/gfmethod"
        },
        {
            "from": "http://id.d4k.dk/dataset/cdisc/sdtm/v3-4/gf",
            "to": "http://id.d4k.dk/dataset/cdisc/sdtm/v3-4/gf/gfrunid"
        },
        {
            "from": "http://id.d4k.dk/dataset/cdisc/sdtm/v3-4/gf",
            "to": "http://id.d4k.dk/dataset/cdisc/sdtm/v3-4/gf/gfanmeth"
        },
        {
            "from": "http://id.d4k.dk/dataset/cdisc/sdtm/v3-4/gf",
            "to": "http://id.d4k.dk/dataset/cdisc/sdtm/v3-4/gf/gfblfl"
        },
        {
            "from": "http://id.d4k.dk/dataset/cdisc/sdtm/v3-4/gf",
            "to": "http://id.d4k.dk/dataset/cdisc/sdtm/v3-4/gf/gfdrvfl"
        },
        {
            "from": "http://id.d4k.dk/dataset/cdisc/sdtm/v3-4/gf",
            "to": "http://id.d4k.dk/dataset/cdisc/sdtm/v3-4/gf/gflloq"
        },
        {
            "from": "http://id.d4k.dk/dataset/cdisc/sdtm/v3-4/gf",
            "to": "http://id.d4k.dk/dataset/cdisc/sdtm/v3-4/gf/gfrepnum"
        },
        {
            "from": "http://id.d4k.dk/dataset/cdisc/sdtm/v3-4/gf",
            "to": "http://id.d4k.dk/dataset/cdisc/sdtm/v3-4/gf/visitnum"
        },
        {
            "from": "http://id.d4k.dk/dataset/cdisc/sdtm/v3-4/gf",
            "to": "http://id.d4k.dk/dataset/cdisc/sdtm/v3-4/gf/visit"
        },
        {
            "from": "http://id.d4k.dk/dataset/cdisc/sdtm/v3-4/gf",
            "to": "http://id.d4k.dk/dataset/cdisc/sdtm/v3-4/gf/visitdy"
        },
        {
            "from": "http://id.d4k.dk/dataset/cdisc/sdtm/v3-4/gf",
            "to": "http://id.d4k.dk/dataset/cdisc/sdtm/v3-4/gf/gfdtc"
        },
        {
            "from": "http://id.d4k.dk/dataset/cdisc/sdtm/v3-4/gf",
            "to": "http://id.d4k.dk/dataset/cdisc/sdtm/v3-4/gf/gfdy"
        },
        {
            "from": "http://id.d4k.dk/dataset/cdisc/sdtm/v3-4/gf",
            "to": "http://id.d4k.dk/dataset/cdisc/sdtm/v3-4/gf/gftpt"
        },
        {
            "from": "http://id.d4k.dk/dataset/cdisc/sdtm/v3-4/gf",
            "to": "http://id.d4k.dk/dataset/cdisc/sdtm/v3-4/gf/gftptnum"
        },
        {
            "from": "http://id.d4k.dk/dataset/cdisc/sdtm/v3-4/gf",
            "to": "http://id.d4k.dk/dataset/cdisc/sdtm/v3-4/gf/gfeltm"
        },
        {
            "from": "http://id.d4k.dk/dataset/cdisc/sdtm/v3-4/gf",
            "to": "http://id.d4k.dk/dataset/cdisc/sdtm/v3-4/gf/gftptref"
        },
        {
            "from": "http://id.d4k.dk/dataset/cdisc/sdtm/v3-4/gf",
            "to": "http://id.d4k.dk/dataset/cdisc/sdtm/v3-4/gf/gfrftdtc"
        },
        {
            "from": "http://id.d4k.dk/dataset/cdisc/sdtm/v3-4/ie",
            "to": "http://id.d4k.dk/dataset/cdisc/sdtm/v3-4/ie/studyid"
        },
        {
            "from": "http://id.d4k.dk/dataset/cdisc/sdtm/v3-4/ie",
            "to": "http://id.d4k.dk/dataset/cdisc/sdtm/v3-4/ie/domain"
        },
        {
            "from": "http://id.d4k.dk/dataset/cdisc/sdtm/v3-4/ie",
            "to": "http://id.d4k.dk/dataset/cdisc/sdtm/v3-4/ie/usubjid"
        },
        {
            "from": "http://id.d4k.dk/dataset/cdisc/sdtm/v3-4/ie",
            "to": "http://id.d4k.dk/dataset/cdisc/sdtm/v3-4/ie/ieseq"
        },
        {
            "from": "http://id.d4k.dk/dataset/cdisc/sdtm/v3-4/ie",
            "to": "http://id.d4k.dk/dataset/cdisc/sdtm/v3-4/ie/iespid"
        },
        {
            "from": "http://id.d4k.dk/dataset/cdisc/sdtm/v3-4/ie",
            "to": "http://id.d4k.dk/dataset/cdisc/sdtm/v3-4/ie/ietestcd"
        },
        {
            "from": "http://id.d4k.dk/dataset/cdisc/sdtm/v3-4/ie",
            "to": "http://id.d4k.dk/dataset/cdisc/sdtm/v3-4/ie/ietest"
        },
        {
            "from": "http://id.d4k.dk/dataset/cdisc/sdtm/v3-4/ie",
            "to": "http://id.d4k.dk/dataset/cdisc/sdtm/v3-4/ie/iecat"
        },
        {
            "from": "http://id.d4k.dk/dataset/cdisc/sdtm/v3-4/ie",
            "to": "http://id.d4k.dk/dataset/cdisc/sdtm/v3-4/ie/iescat"
        },
        {
            "from": "http://id.d4k.dk/dataset/cdisc/sdtm/v3-4/ie",
            "to": "http://id.d4k.dk/dataset/cdisc/sdtm/v3-4/ie/ieorres"
        },
        {
            "from": "http://id.d4k.dk/dataset/cdisc/sdtm/v3-4/ie",
            "to": "http://id.d4k.dk/dataset/cdisc/sdtm/v3-4/ie/iestresc"
        },
        {
            "from": "http://id.d4k.dk/dataset/cdisc/sdtm/v3-4/ie",
            "to": "http://id.d4k.dk/dataset/cdisc/sdtm/v3-4/ie/visitnum"
        },
        {
            "from": "http://id.d4k.dk/dataset/cdisc/sdtm/v3-4/ie",
            "to": "http://id.d4k.dk/dataset/cdisc/sdtm/v3-4/ie/visit"
        },
        {
            "from": "http://id.d4k.dk/dataset/cdisc/sdtm/v3-4/ie",
            "to": "http://id.d4k.dk/dataset/cdisc/sdtm/v3-4/ie/visitdy"
        },
        {
            "from": "http://id.d4k.dk/dataset/cdisc/sdtm/v3-4/ie",
            "to": "http://id.d4k.dk/dataset/cdisc/sdtm/v3-4/ie/taetord"
        },
        {
            "from": "http://id.d4k.dk/dataset/cdisc/sdtm/v3-4/ie",
            "to": "http://id.d4k.dk/dataset/cdisc/sdtm/v3-4/ie/epoch"
        },
        {
            "from": "http://id.d4k.dk/dataset/cdisc/sdtm/v3-4/ie",
            "to": "http://id.d4k.dk/dataset/cdisc/sdtm/v3-4/ie/iedtc"
        },
        {
            "from": "http://id.d4k.dk/dataset/cdisc/sdtm/v3-4/ie",
            "to": "http://id.d4k.dk/dataset/cdisc/sdtm/v3-4/ie/iedy"
        },
        {
            "from": "http://id.d4k.dk/dataset/cdisc/sdtm/v3-4/is",
            "to": "http://id.d4k.dk/dataset/cdisc/sdtm/v3-4/is/studyid"
        },
        {
            "from": "http://id.d4k.dk/dataset/cdisc/sdtm/v3-4/is",
            "to": "http://id.d4k.dk/dataset/cdisc/sdtm/v3-4/is/domain"
        },
        {
            "from": "http://id.d4k.dk/dataset/cdisc/sdtm/v3-4/is",
            "to": "http://id.d4k.dk/dataset/cdisc/sdtm/v3-4/is/usubjid"
        },
        {
            "from": "http://id.d4k.dk/dataset/cdisc/sdtm/v3-4/is",
            "to": "http://id.d4k.dk/dataset/cdisc/sdtm/v3-4/is/nhoid"
        },
        {
            "from": "http://id.d4k.dk/dataset/cdisc/sdtm/v3-4/is",
            "to": "http://id.d4k.dk/dataset/cdisc/sdtm/v3-4/is/isseq"
        },
        {
            "from": "http://id.d4k.dk/dataset/cdisc/sdtm/v3-4/is",
            "to": "http://id.d4k.dk/dataset/cdisc/sdtm/v3-4/is/isgrpid"
        },
        {
            "from": "http://id.d4k.dk/dataset/cdisc/sdtm/v3-4/is",
            "to": "http://id.d4k.dk/dataset/cdisc/sdtm/v3-4/is/isrefid"
        },
        {
            "from": "http://id.d4k.dk/dataset/cdisc/sdtm/v3-4/is",
            "to": "http://id.d4k.dk/dataset/cdisc/sdtm/v3-4/is/isspid"
        },
        {
            "from": "http://id.d4k.dk/dataset/cdisc/sdtm/v3-4/is",
            "to": "http://id.d4k.dk/dataset/cdisc/sdtm/v3-4/is/istestcd"
        },
        {
            "from": "http://id.d4k.dk/dataset/cdisc/sdtm/v3-4/is",
            "to": "http://id.d4k.dk/dataset/cdisc/sdtm/v3-4/is/istest"
        },
        {
            "from": "http://id.d4k.dk/dataset/cdisc/sdtm/v3-4/is",
            "to": "http://id.d4k.dk/dataset/cdisc/sdtm/v3-4/is/iststcnd"
        },
        {
            "from": "http://id.d4k.dk/dataset/cdisc/sdtm/v3-4/is",
            "to": "http://id.d4k.dk/dataset/cdisc/sdtm/v3-4/is/iscndagt"
        },
        {
            "from": "http://id.d4k.dk/dataset/cdisc/sdtm/v3-4/is",
            "to": "http://id.d4k.dk/dataset/cdisc/sdtm/v3-4/is/isbdagnt"
        },
        {
            "from": "http://id.d4k.dk/dataset/cdisc/sdtm/v3-4/is",
            "to": "http://id.d4k.dk/dataset/cdisc/sdtm/v3-4/is/iststopo"
        },
        {
            "from": "http://id.d4k.dk/dataset/cdisc/sdtm/v3-4/is",
            "to": "http://id.d4k.dk/dataset/cdisc/sdtm/v3-4/is/ismscbce"
        },
        {
            "from": "http://id.d4k.dk/dataset/cdisc/sdtm/v3-4/is",
            "to": "http://id.d4k.dk/dataset/cdisc/sdtm/v3-4/is/iststdtl"
        },
        {
            "from": "http://id.d4k.dk/dataset/cdisc/sdtm/v3-4/is",
            "to": "http://id.d4k.dk/dataset/cdisc/sdtm/v3-4/is/iscat"
        },
        {
            "from": "http://id.d4k.dk/dataset/cdisc/sdtm/v3-4/is",
            "to": "http://id.d4k.dk/dataset/cdisc/sdtm/v3-4/is/isscat"
        },
        {
            "from": "http://id.d4k.dk/dataset/cdisc/sdtm/v3-4/is",
            "to": "http://id.d4k.dk/dataset/cdisc/sdtm/v3-4/is/isorres"
        },
        {
            "from": "http://id.d4k.dk/dataset/cdisc/sdtm/v3-4/is",
            "to": "http://id.d4k.dk/dataset/cdisc/sdtm/v3-4/is/isorresu"
        },
        {
            "from": "http://id.d4k.dk/dataset/cdisc/sdtm/v3-4/is",
            "to": "http://id.d4k.dk/dataset/cdisc/sdtm/v3-4/is/isornrlo"
        },
        {
            "from": "http://id.d4k.dk/dataset/cdisc/sdtm/v3-4/is",
            "to": "http://id.d4k.dk/dataset/cdisc/sdtm/v3-4/is/isornrhi"
        },
        {
            "from": "http://id.d4k.dk/dataset/cdisc/sdtm/v3-4/is",
            "to": "http://id.d4k.dk/dataset/cdisc/sdtm/v3-4/is/isstresc"
        },
        {
            "from": "http://id.d4k.dk/dataset/cdisc/sdtm/v3-4/is",
            "to": "http://id.d4k.dk/dataset/cdisc/sdtm/v3-4/is/isstresn"
        },
        {
            "from": "http://id.d4k.dk/dataset/cdisc/sdtm/v3-4/is",
            "to": "http://id.d4k.dk/dataset/cdisc/sdtm/v3-4/is/isstresu"
        },
        {
            "from": "http://id.d4k.dk/dataset/cdisc/sdtm/v3-4/is",
            "to": "http://id.d4k.dk/dataset/cdisc/sdtm/v3-4/is/isstnrlo"
        },
        {
            "from": "http://id.d4k.dk/dataset/cdisc/sdtm/v3-4/is",
            "to": "http://id.d4k.dk/dataset/cdisc/sdtm/v3-4/is/isstnrhi"
        },
        {
            "from": "http://id.d4k.dk/dataset/cdisc/sdtm/v3-4/is",
            "to": "http://id.d4k.dk/dataset/cdisc/sdtm/v3-4/is/isstnrc"
        },
        {
            "from": "http://id.d4k.dk/dataset/cdisc/sdtm/v3-4/is",
            "to": "http://id.d4k.dk/dataset/cdisc/sdtm/v3-4/is/isnrind"
        },
        {
            "from": "http://id.d4k.dk/dataset/cdisc/sdtm/v3-4/is",
            "to": "http://id.d4k.dk/dataset/cdisc/sdtm/v3-4/is/isstat"
        },
        {
            "from": "http://id.d4k.dk/dataset/cdisc/sdtm/v3-4/is",
            "to": "http://id.d4k.dk/dataset/cdisc/sdtm/v3-4/is/isreasnd"
        },
        {
            "from": "http://id.d4k.dk/dataset/cdisc/sdtm/v3-4/is",
            "to": "http://id.d4k.dk/dataset/cdisc/sdtm/v3-4/is/isnam"
        },
        {
            "from": "http://id.d4k.dk/dataset/cdisc/sdtm/v3-4/is",
            "to": "http://id.d4k.dk/dataset/cdisc/sdtm/v3-4/is/isspec"
        },
        {
            "from": "http://id.d4k.dk/dataset/cdisc/sdtm/v3-4/is",
            "to": "http://id.d4k.dk/dataset/cdisc/sdtm/v3-4/is/isspccnd"
        },
        {
            "from": "http://id.d4k.dk/dataset/cdisc/sdtm/v3-4/is",
            "to": "http://id.d4k.dk/dataset/cdisc/sdtm/v3-4/is/isspcufl"
        },
        {
            "from": "http://id.d4k.dk/dataset/cdisc/sdtm/v3-4/is",
            "to": "http://id.d4k.dk/dataset/cdisc/sdtm/v3-4/is/ismethod"
        },
        {
            "from": "http://id.d4k.dk/dataset/cdisc/sdtm/v3-4/is",
            "to": "http://id.d4k.dk/dataset/cdisc/sdtm/v3-4/is/islobxfl"
        },
        {
            "from": "http://id.d4k.dk/dataset/cdisc/sdtm/v3-4/is",
            "to": "http://id.d4k.dk/dataset/cdisc/sdtm/v3-4/is/isblfl"
        },
        {
            "from": "http://id.d4k.dk/dataset/cdisc/sdtm/v3-4/is",
            "to": "http://id.d4k.dk/dataset/cdisc/sdtm/v3-4/is/isdrvfl"
        },
        {
            "from": "http://id.d4k.dk/dataset/cdisc/sdtm/v3-4/is",
            "to": "http://id.d4k.dk/dataset/cdisc/sdtm/v3-4/is/islloq"
        },
        {
            "from": "http://id.d4k.dk/dataset/cdisc/sdtm/v3-4/is",
            "to": "http://id.d4k.dk/dataset/cdisc/sdtm/v3-4/is/visitnum"
        },
        {
            "from": "http://id.d4k.dk/dataset/cdisc/sdtm/v3-4/is",
            "to": "http://id.d4k.dk/dataset/cdisc/sdtm/v3-4/is/visit"
        },
        {
            "from": "http://id.d4k.dk/dataset/cdisc/sdtm/v3-4/is",
            "to": "http://id.d4k.dk/dataset/cdisc/sdtm/v3-4/is/visitdy"
        },
        {
            "from": "http://id.d4k.dk/dataset/cdisc/sdtm/v3-4/is",
            "to": "http://id.d4k.dk/dataset/cdisc/sdtm/v3-4/is/taetord"
        },
        {
            "from": "http://id.d4k.dk/dataset/cdisc/sdtm/v3-4/is",
            "to": "http://id.d4k.dk/dataset/cdisc/sdtm/v3-4/is/epoch"
        },
        {
            "from": "http://id.d4k.dk/dataset/cdisc/sdtm/v3-4/is",
            "to": "http://id.d4k.dk/dataset/cdisc/sdtm/v3-4/is/isdtc"
        },
        {
            "from": "http://id.d4k.dk/dataset/cdisc/sdtm/v3-4/is",
            "to": "http://id.d4k.dk/dataset/cdisc/sdtm/v3-4/is/isendtc"
        },
        {
            "from": "http://id.d4k.dk/dataset/cdisc/sdtm/v3-4/is",
            "to": "http://id.d4k.dk/dataset/cdisc/sdtm/v3-4/is/isdy"
        },
        {
            "from": "http://id.d4k.dk/dataset/cdisc/sdtm/v3-4/is",
            "to": "http://id.d4k.dk/dataset/cdisc/sdtm/v3-4/is/isendy"
        },
        {
            "from": "http://id.d4k.dk/dataset/cdisc/sdtm/v3-4/is",
            "to": "http://id.d4k.dk/dataset/cdisc/sdtm/v3-4/is/istpt"
        },
        {
            "from": "http://id.d4k.dk/dataset/cdisc/sdtm/v3-4/is",
            "to": "http://id.d4k.dk/dataset/cdisc/sdtm/v3-4/is/istptnum"
        },
        {
            "from": "http://id.d4k.dk/dataset/cdisc/sdtm/v3-4/is",
            "to": "http://id.d4k.dk/dataset/cdisc/sdtm/v3-4/is/iseltm"
        },
        {
            "from": "http://id.d4k.dk/dataset/cdisc/sdtm/v3-4/is",
            "to": "http://id.d4k.dk/dataset/cdisc/sdtm/v3-4/is/istptref"
        },
        {
            "from": "http://id.d4k.dk/dataset/cdisc/sdtm/v3-4/is",
            "to": "http://id.d4k.dk/dataset/cdisc/sdtm/v3-4/is/isrftdtc"
        },
        {
            "from": "http://id.d4k.dk/dataset/cdisc/sdtm/v3-4/lb",
            "to": "http://id.d4k.dk/dataset/cdisc/sdtm/v3-4/lb/studyid"
        },
        {
            "from": "http://id.d4k.dk/dataset/cdisc/sdtm/v3-4/lb",
            "to": "http://id.d4k.dk/dataset/cdisc/sdtm/v3-4/lb/domain"
        },
        {
            "from": "http://id.d4k.dk/dataset/cdisc/sdtm/v3-4/lb",
            "to": "http://id.d4k.dk/dataset/cdisc/sdtm/v3-4/lb/usubjid"
        },
        {
            "from": "http://id.d4k.dk/dataset/cdisc/sdtm/v3-4/lb",
            "to": "http://id.d4k.dk/dataset/cdisc/sdtm/v3-4/lb/lbseq"
        },
        {
            "from": "http://id.d4k.dk/dataset/cdisc/sdtm/v3-4/lb",
            "to": "http://id.d4k.dk/dataset/cdisc/sdtm/v3-4/lb/lbgrpid"
        },
        {
            "from": "http://id.d4k.dk/dataset/cdisc/sdtm/v3-4/lb",
            "to": "http://id.d4k.dk/dataset/cdisc/sdtm/v3-4/lb/lbrefid"
        },
        {
            "from": "http://id.d4k.dk/dataset/cdisc/sdtm/v3-4/lb",
            "to": "http://id.d4k.dk/dataset/cdisc/sdtm/v3-4/lb/lbspid"
        },
        {
            "from": "http://id.d4k.dk/dataset/cdisc/sdtm/v3-4/lb",
            "to": "http://id.d4k.dk/dataset/cdisc/sdtm/v3-4/lb/lbtestcd"
        },
        {
            "from": "http://id.d4k.dk/dataset/cdisc/sdtm/v3-4/lb",
            "to": "http://id.d4k.dk/dataset/cdisc/sdtm/v3-4/lb/lbtest"
        },
        {
            "from": "http://id.d4k.dk/dataset/cdisc/sdtm/v3-4/lb",
            "to": "http://id.d4k.dk/dataset/cdisc/sdtm/v3-4/lb/lbtstcnd"
        },
        {
            "from": "http://id.d4k.dk/dataset/cdisc/sdtm/v3-4/lb",
            "to": "http://id.d4k.dk/dataset/cdisc/sdtm/v3-4/lb/lbbdagnt"
        },
        {
            "from": "http://id.d4k.dk/dataset/cdisc/sdtm/v3-4/lb",
            "to": "http://id.d4k.dk/dataset/cdisc/sdtm/v3-4/lb/lbtstopo"
        },
        {
            "from": "http://id.d4k.dk/dataset/cdisc/sdtm/v3-4/lb",
            "to": "http://id.d4k.dk/dataset/cdisc/sdtm/v3-4/lb/lbcat"
        },
        {
            "from": "http://id.d4k.dk/dataset/cdisc/sdtm/v3-4/lb",
            "to": "http://id.d4k.dk/dataset/cdisc/sdtm/v3-4/lb/lbscat"
        },
        {
            "from": "http://id.d4k.dk/dataset/cdisc/sdtm/v3-4/lb",
            "to": "http://id.d4k.dk/dataset/cdisc/sdtm/v3-4/lb/lborres"
        },
        {
            "from": "http://id.d4k.dk/dataset/cdisc/sdtm/v3-4/lb",
            "to": "http://id.d4k.dk/dataset/cdisc/sdtm/v3-4/lb/lborresu"
        },
        {
            "from": "http://id.d4k.dk/dataset/cdisc/sdtm/v3-4/lb",
            "to": "http://id.d4k.dk/dataset/cdisc/sdtm/v3-4/lb/lbresscl"
        },
        {
            "from": "http://id.d4k.dk/dataset/cdisc/sdtm/v3-4/lb",
            "to": "http://id.d4k.dk/dataset/cdisc/sdtm/v3-4/lb/lbrestyp"
        },
        {
            "from": "http://id.d4k.dk/dataset/cdisc/sdtm/v3-4/lb",
            "to": "http://id.d4k.dk/dataset/cdisc/sdtm/v3-4/lb/lbcolsrt"
        },
        {
            "from": "http://id.d4k.dk/dataset/cdisc/sdtm/v3-4/lb",
            "to": "http://id.d4k.dk/dataset/cdisc/sdtm/v3-4/lb/lbornrlo"
        },
        {
            "from": "http://id.d4k.dk/dataset/cdisc/sdtm/v3-4/lb",
            "to": "http://id.d4k.dk/dataset/cdisc/sdtm/v3-4/lb/lbornrhi"
        },
        {
            "from": "http://id.d4k.dk/dataset/cdisc/sdtm/v3-4/lb",
            "to": "http://id.d4k.dk/dataset/cdisc/sdtm/v3-4/lb/lbllod"
        },
        {
            "from": "http://id.d4k.dk/dataset/cdisc/sdtm/v3-4/lb",
            "to": "http://id.d4k.dk/dataset/cdisc/sdtm/v3-4/lb/lbstresc"
        },
        {
            "from": "http://id.d4k.dk/dataset/cdisc/sdtm/v3-4/lb",
            "to": "http://id.d4k.dk/dataset/cdisc/sdtm/v3-4/lb/lbstresn"
        },
        {
            "from": "http://id.d4k.dk/dataset/cdisc/sdtm/v3-4/lb",
            "to": "http://id.d4k.dk/dataset/cdisc/sdtm/v3-4/lb/lbstresu"
        },
        {
            "from": "http://id.d4k.dk/dataset/cdisc/sdtm/v3-4/lb",
            "to": "http://id.d4k.dk/dataset/cdisc/sdtm/v3-4/lb/lbstnrlo"
        },
        {
            "from": "http://id.d4k.dk/dataset/cdisc/sdtm/v3-4/lb",
            "to": "http://id.d4k.dk/dataset/cdisc/sdtm/v3-4/lb/lbstnrhi"
        },
        {
            "from": "http://id.d4k.dk/dataset/cdisc/sdtm/v3-4/lb",
            "to": "http://id.d4k.dk/dataset/cdisc/sdtm/v3-4/lb/lbstnrc"
        },
        {
            "from": "http://id.d4k.dk/dataset/cdisc/sdtm/v3-4/lb",
            "to": "http://id.d4k.dk/dataset/cdisc/sdtm/v3-4/lb/lbnrind"
        },
        {
            "from": "http://id.d4k.dk/dataset/cdisc/sdtm/v3-4/lb",
            "to": "http://id.d4k.dk/dataset/cdisc/sdtm/v3-4/lb/lbstat"
        },
        {
            "from": "http://id.d4k.dk/dataset/cdisc/sdtm/v3-4/lb",
            "to": "http://id.d4k.dk/dataset/cdisc/sdtm/v3-4/lb/lbreasnd"
        },
        {
            "from": "http://id.d4k.dk/dataset/cdisc/sdtm/v3-4/lb",
            "to": "http://id.d4k.dk/dataset/cdisc/sdtm/v3-4/lb/lbnam"
        },
        {
            "from": "http://id.d4k.dk/dataset/cdisc/sdtm/v3-4/lb",
            "to": "http://id.d4k.dk/dataset/cdisc/sdtm/v3-4/lb/lbloinc"
        },
        {
            "from": "http://id.d4k.dk/dataset/cdisc/sdtm/v3-4/lb",
            "to": "http://id.d4k.dk/dataset/cdisc/sdtm/v3-4/lb/lbspec"
        },
        {
            "from": "http://id.d4k.dk/dataset/cdisc/sdtm/v3-4/lb",
            "to": "http://id.d4k.dk/dataset/cdisc/sdtm/v3-4/lb/lbspccnd"
        },
        {
            "from": "http://id.d4k.dk/dataset/cdisc/sdtm/v3-4/lb",
            "to": "http://id.d4k.dk/dataset/cdisc/sdtm/v3-4/lb/lbspcufl"
        },
        {
            "from": "http://id.d4k.dk/dataset/cdisc/sdtm/v3-4/lb",
            "to": "http://id.d4k.dk/dataset/cdisc/sdtm/v3-4/lb/lbmethod"
        },
        {
            "from": "http://id.d4k.dk/dataset/cdisc/sdtm/v3-4/lb",
            "to": "http://id.d4k.dk/dataset/cdisc/sdtm/v3-4/lb/lbanmeth"
        },
        {
            "from": "http://id.d4k.dk/dataset/cdisc/sdtm/v3-4/lb",
            "to": "http://id.d4k.dk/dataset/cdisc/sdtm/v3-4/lb/lbtmthsn"
        },
        {
            "from": "http://id.d4k.dk/dataset/cdisc/sdtm/v3-4/lb",
            "to": "http://id.d4k.dk/dataset/cdisc/sdtm/v3-4/lb/lblobxfl"
        },
        {
            "from": "http://id.d4k.dk/dataset/cdisc/sdtm/v3-4/lb",
            "to": "http://id.d4k.dk/dataset/cdisc/sdtm/v3-4/lb/lbblfl"
        },
        {
            "from": "http://id.d4k.dk/dataset/cdisc/sdtm/v3-4/lb",
            "to": "http://id.d4k.dk/dataset/cdisc/sdtm/v3-4/lb/lbfast"
        },
        {
            "from": "http://id.d4k.dk/dataset/cdisc/sdtm/v3-4/lb",
            "to": "http://id.d4k.dk/dataset/cdisc/sdtm/v3-4/lb/lbdrvfl"
        },
        {
            "from": "http://id.d4k.dk/dataset/cdisc/sdtm/v3-4/lb",
            "to": "http://id.d4k.dk/dataset/cdisc/sdtm/v3-4/lb/lbtox"
        },
        {
            "from": "http://id.d4k.dk/dataset/cdisc/sdtm/v3-4/lb",
            "to": "http://id.d4k.dk/dataset/cdisc/sdtm/v3-4/lb/lbtoxgr"
        },
        {
            "from": "http://id.d4k.dk/dataset/cdisc/sdtm/v3-4/lb",
            "to": "http://id.d4k.dk/dataset/cdisc/sdtm/v3-4/lb/lbclsig"
        },
        {
            "from": "http://id.d4k.dk/dataset/cdisc/sdtm/v3-4/lb",
            "to": "http://id.d4k.dk/dataset/cdisc/sdtm/v3-4/lb/visitnum"
        },
        {
            "from": "http://id.d4k.dk/dataset/cdisc/sdtm/v3-4/lb",
            "to": "http://id.d4k.dk/dataset/cdisc/sdtm/v3-4/lb/visit"
        },
        {
            "from": "http://id.d4k.dk/dataset/cdisc/sdtm/v3-4/lb",
            "to": "http://id.d4k.dk/dataset/cdisc/sdtm/v3-4/lb/visitdy"
        },
        {
            "from": "http://id.d4k.dk/dataset/cdisc/sdtm/v3-4/lb",
            "to": "http://id.d4k.dk/dataset/cdisc/sdtm/v3-4/lb/taetord"
        },
        {
            "from": "http://id.d4k.dk/dataset/cdisc/sdtm/v3-4/lb",
            "to": "http://id.d4k.dk/dataset/cdisc/sdtm/v3-4/lb/epoch"
        },
        {
            "from": "http://id.d4k.dk/dataset/cdisc/sdtm/v3-4/lb",
            "to": "http://id.d4k.dk/dataset/cdisc/sdtm/v3-4/lb/lbdtc"
        },
        {
            "from": "http://id.d4k.dk/dataset/cdisc/sdtm/v3-4/lb",
            "to": "http://id.d4k.dk/dataset/cdisc/sdtm/v3-4/lb/lbendtc"
        },
        {
            "from": "http://id.d4k.dk/dataset/cdisc/sdtm/v3-4/lb",
            "to": "http://id.d4k.dk/dataset/cdisc/sdtm/v3-4/lb/lbdy"
        },
        {
            "from": "http://id.d4k.dk/dataset/cdisc/sdtm/v3-4/lb",
            "to": "http://id.d4k.dk/dataset/cdisc/sdtm/v3-4/lb/lbendy"
        },
        {
            "from": "http://id.d4k.dk/dataset/cdisc/sdtm/v3-4/lb",
            "to": "http://id.d4k.dk/dataset/cdisc/sdtm/v3-4/lb/lbtpt"
        },
        {
            "from": "http://id.d4k.dk/dataset/cdisc/sdtm/v3-4/lb",
            "to": "http://id.d4k.dk/dataset/cdisc/sdtm/v3-4/lb/lbtptnum"
        },
        {
            "from": "http://id.d4k.dk/dataset/cdisc/sdtm/v3-4/lb",
            "to": "http://id.d4k.dk/dataset/cdisc/sdtm/v3-4/lb/lbeltm"
        },
        {
            "from": "http://id.d4k.dk/dataset/cdisc/sdtm/v3-4/lb",
            "to": "http://id.d4k.dk/dataset/cdisc/sdtm/v3-4/lb/lbtptref"
        },
        {
            "from": "http://id.d4k.dk/dataset/cdisc/sdtm/v3-4/lb",
            "to": "http://id.d4k.dk/dataset/cdisc/sdtm/v3-4/lb/lbrftdtc"
        },
        {
            "from": "http://id.d4k.dk/dataset/cdisc/sdtm/v3-4/lb",
            "to": "http://id.d4k.dk/dataset/cdisc/sdtm/v3-4/lb/lbptfl"
        },
        {
            "from": "http://id.d4k.dk/dataset/cdisc/sdtm/v3-4/lb",
            "to": "http://id.d4k.dk/dataset/cdisc/sdtm/v3-4/lb/lbpdur"
        },
        {
            "from": "http://id.d4k.dk/dataset/cdisc/sdtm/v3-4/mb",
            "to": "http://id.d4k.dk/dataset/cdisc/sdtm/v3-4/mb/studyid"
        },
        {
            "from": "http://id.d4k.dk/dataset/cdisc/sdtm/v3-4/mb",
            "to": "http://id.d4k.dk/dataset/cdisc/sdtm/v3-4/mb/domain"
        },
        {
            "from": "http://id.d4k.dk/dataset/cdisc/sdtm/v3-4/mb",
            "to": "http://id.d4k.dk/dataset/cdisc/sdtm/v3-4/mb/usubjid"
        },
        {
            "from": "http://id.d4k.dk/dataset/cdisc/sdtm/v3-4/mb",
            "to": "http://id.d4k.dk/dataset/cdisc/sdtm/v3-4/mb/focid"
        },
        {
            "from": "http://id.d4k.dk/dataset/cdisc/sdtm/v3-4/mb",
            "to": "http://id.d4k.dk/dataset/cdisc/sdtm/v3-4/mb/mbseq"
        },
        {
            "from": "http://id.d4k.dk/dataset/cdisc/sdtm/v3-4/mb",
            "to": "http://id.d4k.dk/dataset/cdisc/sdtm/v3-4/mb/mbgrpid"
        },
        {
            "from": "http://id.d4k.dk/dataset/cdisc/sdtm/v3-4/mb",
            "to": "http://id.d4k.dk/dataset/cdisc/sdtm/v3-4/mb/mbrefid"
        },
        {
            "from": "http://id.d4k.dk/dataset/cdisc/sdtm/v3-4/mb",
            "to": "http://id.d4k.dk/dataset/cdisc/sdtm/v3-4/mb/mbspid"
        },
        {
            "from": "http://id.d4k.dk/dataset/cdisc/sdtm/v3-4/mb",
            "to": "http://id.d4k.dk/dataset/cdisc/sdtm/v3-4/mb/mblnkid"
        },
        {
            "from": "http://id.d4k.dk/dataset/cdisc/sdtm/v3-4/mb",
            "to": "http://id.d4k.dk/dataset/cdisc/sdtm/v3-4/mb/mblnkgrp"
        },
        {
            "from": "http://id.d4k.dk/dataset/cdisc/sdtm/v3-4/mb",
            "to": "http://id.d4k.dk/dataset/cdisc/sdtm/v3-4/mb/mbtestcd"
        },
        {
            "from": "http://id.d4k.dk/dataset/cdisc/sdtm/v3-4/mb",
            "to": "http://id.d4k.dk/dataset/cdisc/sdtm/v3-4/mb/mbtest"
        },
        {
            "from": "http://id.d4k.dk/dataset/cdisc/sdtm/v3-4/mb",
            "to": "http://id.d4k.dk/dataset/cdisc/sdtm/v3-4/mb/mbtstdtl"
        },
        {
            "from": "http://id.d4k.dk/dataset/cdisc/sdtm/v3-4/mb",
            "to": "http://id.d4k.dk/dataset/cdisc/sdtm/v3-4/mb/mbcat"
        },
        {
            "from": "http://id.d4k.dk/dataset/cdisc/sdtm/v3-4/mb",
            "to": "http://id.d4k.dk/dataset/cdisc/sdtm/v3-4/mb/mbscat"
        },
        {
            "from": "http://id.d4k.dk/dataset/cdisc/sdtm/v3-4/mb",
            "to": "http://id.d4k.dk/dataset/cdisc/sdtm/v3-4/mb/mborres"
        },
        {
            "from": "http://id.d4k.dk/dataset/cdisc/sdtm/v3-4/mb",
            "to": "http://id.d4k.dk/dataset/cdisc/sdtm/v3-4/mb/mborresu"
        },
        {
            "from": "http://id.d4k.dk/dataset/cdisc/sdtm/v3-4/mb",
            "to": "http://id.d4k.dk/dataset/cdisc/sdtm/v3-4/mb/mbstresc"
        },
        {
            "from": "http://id.d4k.dk/dataset/cdisc/sdtm/v3-4/mb",
            "to": "http://id.d4k.dk/dataset/cdisc/sdtm/v3-4/mb/mbstresn"
        },
        {
            "from": "http://id.d4k.dk/dataset/cdisc/sdtm/v3-4/mb",
            "to": "http://id.d4k.dk/dataset/cdisc/sdtm/v3-4/mb/mbstresu"
        },
        {
            "from": "http://id.d4k.dk/dataset/cdisc/sdtm/v3-4/mb",
            "to": "http://id.d4k.dk/dataset/cdisc/sdtm/v3-4/mb/mbrescat"
        },
        {
            "from": "http://id.d4k.dk/dataset/cdisc/sdtm/v3-4/mb",
            "to": "http://id.d4k.dk/dataset/cdisc/sdtm/v3-4/mb/mbstat"
        },
        {
            "from": "http://id.d4k.dk/dataset/cdisc/sdtm/v3-4/mb",
            "to": "http://id.d4k.dk/dataset/cdisc/sdtm/v3-4/mb/mbreasnd"
        },
        {
            "from": "http://id.d4k.dk/dataset/cdisc/sdtm/v3-4/mb",
            "to": "http://id.d4k.dk/dataset/cdisc/sdtm/v3-4/mb/mbnam"
        },
        {
            "from": "http://id.d4k.dk/dataset/cdisc/sdtm/v3-4/mb",
            "to": "http://id.d4k.dk/dataset/cdisc/sdtm/v3-4/mb/mbloinc"
        },
        {
            "from": "http://id.d4k.dk/dataset/cdisc/sdtm/v3-4/mb",
            "to": "http://id.d4k.dk/dataset/cdisc/sdtm/v3-4/mb/mbspec"
        },
        {
            "from": "http://id.d4k.dk/dataset/cdisc/sdtm/v3-4/mb",
            "to": "http://id.d4k.dk/dataset/cdisc/sdtm/v3-4/mb/mbspccnd"
        },
        {
            "from": "http://id.d4k.dk/dataset/cdisc/sdtm/v3-4/mb",
            "to": "http://id.d4k.dk/dataset/cdisc/sdtm/v3-4/mb/mbloc"
        },
        {
            "from": "http://id.d4k.dk/dataset/cdisc/sdtm/v3-4/mb",
            "to": "http://id.d4k.dk/dataset/cdisc/sdtm/v3-4/mb/mblat"
        },
        {
            "from": "http://id.d4k.dk/dataset/cdisc/sdtm/v3-4/mb",
            "to": "http://id.d4k.dk/dataset/cdisc/sdtm/v3-4/mb/mbdir"
        },
        {
            "from": "http://id.d4k.dk/dataset/cdisc/sdtm/v3-4/mb",
            "to": "http://id.d4k.dk/dataset/cdisc/sdtm/v3-4/mb/mbmethod"
        },
        {
            "from": "http://id.d4k.dk/dataset/cdisc/sdtm/v3-4/mb",
            "to": "http://id.d4k.dk/dataset/cdisc/sdtm/v3-4/mb/mblobxfl"
        },
        {
            "from": "http://id.d4k.dk/dataset/cdisc/sdtm/v3-4/mb",
            "to": "http://id.d4k.dk/dataset/cdisc/sdtm/v3-4/mb/mbblfl"
        },
        {
            "from": "http://id.d4k.dk/dataset/cdisc/sdtm/v3-4/mb",
            "to": "http://id.d4k.dk/dataset/cdisc/sdtm/v3-4/mb/mbfast"
        },
        {
            "from": "http://id.d4k.dk/dataset/cdisc/sdtm/v3-4/mb",
            "to": "http://id.d4k.dk/dataset/cdisc/sdtm/v3-4/mb/mbdrvfl"
        },
        {
            "from": "http://id.d4k.dk/dataset/cdisc/sdtm/v3-4/mb",
            "to": "http://id.d4k.dk/dataset/cdisc/sdtm/v3-4/mb/visitnum"
        },
        {
            "from": "http://id.d4k.dk/dataset/cdisc/sdtm/v3-4/mb",
            "to": "http://id.d4k.dk/dataset/cdisc/sdtm/v3-4/mb/visit"
        },
        {
            "from": "http://id.d4k.dk/dataset/cdisc/sdtm/v3-4/mb",
            "to": "http://id.d4k.dk/dataset/cdisc/sdtm/v3-4/mb/visitdy"
        },
        {
            "from": "http://id.d4k.dk/dataset/cdisc/sdtm/v3-4/mb",
            "to": "http://id.d4k.dk/dataset/cdisc/sdtm/v3-4/mb/taetord"
        },
        {
            "from": "http://id.d4k.dk/dataset/cdisc/sdtm/v3-4/mb",
            "to": "http://id.d4k.dk/dataset/cdisc/sdtm/v3-4/mb/epoch"
        },
        {
            "from": "http://id.d4k.dk/dataset/cdisc/sdtm/v3-4/mb",
            "to": "http://id.d4k.dk/dataset/cdisc/sdtm/v3-4/mb/mbdtc"
        },
        {
            "from": "http://id.d4k.dk/dataset/cdisc/sdtm/v3-4/mb",
            "to": "http://id.d4k.dk/dataset/cdisc/sdtm/v3-4/mb/mbdy"
        },
        {
            "from": "http://id.d4k.dk/dataset/cdisc/sdtm/v3-4/mb",
            "to": "http://id.d4k.dk/dataset/cdisc/sdtm/v3-4/mb/mbtpt"
        },
        {
            "from": "http://id.d4k.dk/dataset/cdisc/sdtm/v3-4/mb",
            "to": "http://id.d4k.dk/dataset/cdisc/sdtm/v3-4/mb/mbtptnum"
        },
        {
            "from": "http://id.d4k.dk/dataset/cdisc/sdtm/v3-4/mb",
            "to": "http://id.d4k.dk/dataset/cdisc/sdtm/v3-4/mb/mbeltm"
        },
        {
            "from": "http://id.d4k.dk/dataset/cdisc/sdtm/v3-4/mb",
            "to": "http://id.d4k.dk/dataset/cdisc/sdtm/v3-4/mb/mbtptref"
        },
        {
            "from": "http://id.d4k.dk/dataset/cdisc/sdtm/v3-4/mb",
            "to": "http://id.d4k.dk/dataset/cdisc/sdtm/v3-4/mb/mbrftdtc"
        },
        {
            "from": "http://id.d4k.dk/dataset/cdisc/sdtm/v3-4/mi",
            "to": "http://id.d4k.dk/dataset/cdisc/sdtm/v3-4/mi/studyid"
        },
        {
            "from": "http://id.d4k.dk/dataset/cdisc/sdtm/v3-4/mi",
            "to": "http://id.d4k.dk/dataset/cdisc/sdtm/v3-4/mi/domain"
        },
        {
            "from": "http://id.d4k.dk/dataset/cdisc/sdtm/v3-4/mi",
            "to": "http://id.d4k.dk/dataset/cdisc/sdtm/v3-4/mi/usubjid"
        },
        {
            "from": "http://id.d4k.dk/dataset/cdisc/sdtm/v3-4/mi",
            "to": "http://id.d4k.dk/dataset/cdisc/sdtm/v3-4/mi/miseq"
        },
        {
            "from": "http://id.d4k.dk/dataset/cdisc/sdtm/v3-4/mi",
            "to": "http://id.d4k.dk/dataset/cdisc/sdtm/v3-4/mi/migrpid"
        },
        {
            "from": "http://id.d4k.dk/dataset/cdisc/sdtm/v3-4/mi",
            "to": "http://id.d4k.dk/dataset/cdisc/sdtm/v3-4/mi/mirefid"
        },
        {
            "from": "http://id.d4k.dk/dataset/cdisc/sdtm/v3-4/mi",
            "to": "http://id.d4k.dk/dataset/cdisc/sdtm/v3-4/mi/mispid"
        },
        {
            "from": "http://id.d4k.dk/dataset/cdisc/sdtm/v3-4/mi",
            "to": "http://id.d4k.dk/dataset/cdisc/sdtm/v3-4/mi/mitestcd"
        },
        {
            "from": "http://id.d4k.dk/dataset/cdisc/sdtm/v3-4/mi",
            "to": "http://id.d4k.dk/dataset/cdisc/sdtm/v3-4/mi/mitest"
        },
        {
            "from": "http://id.d4k.dk/dataset/cdisc/sdtm/v3-4/mi",
            "to": "http://id.d4k.dk/dataset/cdisc/sdtm/v3-4/mi/mitstdtl"
        },
        {
            "from": "http://id.d4k.dk/dataset/cdisc/sdtm/v3-4/mi",
            "to": "http://id.d4k.dk/dataset/cdisc/sdtm/v3-4/mi/micat"
        },
        {
            "from": "http://id.d4k.dk/dataset/cdisc/sdtm/v3-4/mi",
            "to": "http://id.d4k.dk/dataset/cdisc/sdtm/v3-4/mi/miscat"
        },
        {
            "from": "http://id.d4k.dk/dataset/cdisc/sdtm/v3-4/mi",
            "to": "http://id.d4k.dk/dataset/cdisc/sdtm/v3-4/mi/miorres"
        },
        {
            "from": "http://id.d4k.dk/dataset/cdisc/sdtm/v3-4/mi",
            "to": "http://id.d4k.dk/dataset/cdisc/sdtm/v3-4/mi/miorresu"
        },
        {
            "from": "http://id.d4k.dk/dataset/cdisc/sdtm/v3-4/mi",
            "to": "http://id.d4k.dk/dataset/cdisc/sdtm/v3-4/mi/mistresc"
        },
        {
            "from": "http://id.d4k.dk/dataset/cdisc/sdtm/v3-4/mi",
            "to": "http://id.d4k.dk/dataset/cdisc/sdtm/v3-4/mi/mistresn"
        },
        {
            "from": "http://id.d4k.dk/dataset/cdisc/sdtm/v3-4/mi",
            "to": "http://id.d4k.dk/dataset/cdisc/sdtm/v3-4/mi/mistresu"
        },
        {
            "from": "http://id.d4k.dk/dataset/cdisc/sdtm/v3-4/mi",
            "to": "http://id.d4k.dk/dataset/cdisc/sdtm/v3-4/mi/mirescat"
        },
        {
            "from": "http://id.d4k.dk/dataset/cdisc/sdtm/v3-4/mi",
            "to": "http://id.d4k.dk/dataset/cdisc/sdtm/v3-4/mi/mistat"
        },
        {
            "from": "http://id.d4k.dk/dataset/cdisc/sdtm/v3-4/mi",
            "to": "http://id.d4k.dk/dataset/cdisc/sdtm/v3-4/mi/mireasnd"
        },
        {
            "from": "http://id.d4k.dk/dataset/cdisc/sdtm/v3-4/mi",
            "to": "http://id.d4k.dk/dataset/cdisc/sdtm/v3-4/mi/minam"
        },
        {
            "from": "http://id.d4k.dk/dataset/cdisc/sdtm/v3-4/mi",
            "to": "http://id.d4k.dk/dataset/cdisc/sdtm/v3-4/mi/mispec"
        },
        {
            "from": "http://id.d4k.dk/dataset/cdisc/sdtm/v3-4/mi",
            "to": "http://id.d4k.dk/dataset/cdisc/sdtm/v3-4/mi/mispccnd"
        },
        {
            "from": "http://id.d4k.dk/dataset/cdisc/sdtm/v3-4/mi",
            "to": "http://id.d4k.dk/dataset/cdisc/sdtm/v3-4/mi/miloc"
        },
        {
            "from": "http://id.d4k.dk/dataset/cdisc/sdtm/v3-4/mi",
            "to": "http://id.d4k.dk/dataset/cdisc/sdtm/v3-4/mi/milat"
        },
        {
            "from": "http://id.d4k.dk/dataset/cdisc/sdtm/v3-4/mi",
            "to": "http://id.d4k.dk/dataset/cdisc/sdtm/v3-4/mi/midir"
        },
        {
            "from": "http://id.d4k.dk/dataset/cdisc/sdtm/v3-4/mi",
            "to": "http://id.d4k.dk/dataset/cdisc/sdtm/v3-4/mi/mimethod"
        },
        {
            "from": "http://id.d4k.dk/dataset/cdisc/sdtm/v3-4/mi",
            "to": "http://id.d4k.dk/dataset/cdisc/sdtm/v3-4/mi/milobxfl"
        },
        {
            "from": "http://id.d4k.dk/dataset/cdisc/sdtm/v3-4/mi",
            "to": "http://id.d4k.dk/dataset/cdisc/sdtm/v3-4/mi/miblfl"
        },
        {
            "from": "http://id.d4k.dk/dataset/cdisc/sdtm/v3-4/mi",
            "to": "http://id.d4k.dk/dataset/cdisc/sdtm/v3-4/mi/mieval"
        },
        {
            "from": "http://id.d4k.dk/dataset/cdisc/sdtm/v3-4/mi",
            "to": "http://id.d4k.dk/dataset/cdisc/sdtm/v3-4/mi/visitnum"
        },
        {
            "from": "http://id.d4k.dk/dataset/cdisc/sdtm/v3-4/mi",
            "to": "http://id.d4k.dk/dataset/cdisc/sdtm/v3-4/mi/visit"
        },
        {
            "from": "http://id.d4k.dk/dataset/cdisc/sdtm/v3-4/mi",
            "to": "http://id.d4k.dk/dataset/cdisc/sdtm/v3-4/mi/visitdy"
        },
        {
            "from": "http://id.d4k.dk/dataset/cdisc/sdtm/v3-4/mi",
            "to": "http://id.d4k.dk/dataset/cdisc/sdtm/v3-4/mi/taetord"
        },
        {
            "from": "http://id.d4k.dk/dataset/cdisc/sdtm/v3-4/mi",
            "to": "http://id.d4k.dk/dataset/cdisc/sdtm/v3-4/mi/epoch"
        },
        {
            "from": "http://id.d4k.dk/dataset/cdisc/sdtm/v3-4/mi",
            "to": "http://id.d4k.dk/dataset/cdisc/sdtm/v3-4/mi/midtc"
        },
        {
            "from": "http://id.d4k.dk/dataset/cdisc/sdtm/v3-4/mi",
            "to": "http://id.d4k.dk/dataset/cdisc/sdtm/v3-4/mi/midy"
        },
        {
            "from": "http://id.d4k.dk/dataset/cdisc/sdtm/v3-4/mk",
            "to": "http://id.d4k.dk/dataset/cdisc/sdtm/v3-4/mk/studyid"
        },
        {
            "from": "http://id.d4k.dk/dataset/cdisc/sdtm/v3-4/mk",
            "to": "http://id.d4k.dk/dataset/cdisc/sdtm/v3-4/mk/domain"
        },
        {
            "from": "http://id.d4k.dk/dataset/cdisc/sdtm/v3-4/mk",
            "to": "http://id.d4k.dk/dataset/cdisc/sdtm/v3-4/mk/usubjid"
        },
        {
            "from": "http://id.d4k.dk/dataset/cdisc/sdtm/v3-4/mk",
            "to": "http://id.d4k.dk/dataset/cdisc/sdtm/v3-4/mk/mkseq"
        },
        {
            "from": "http://id.d4k.dk/dataset/cdisc/sdtm/v3-4/mk",
            "to": "http://id.d4k.dk/dataset/cdisc/sdtm/v3-4/mk/mkgrpid"
        },
        {
            "from": "http://id.d4k.dk/dataset/cdisc/sdtm/v3-4/mk",
            "to": "http://id.d4k.dk/dataset/cdisc/sdtm/v3-4/mk/mkrefid"
        },
        {
            "from": "http://id.d4k.dk/dataset/cdisc/sdtm/v3-4/mk",
            "to": "http://id.d4k.dk/dataset/cdisc/sdtm/v3-4/mk/mkspid"
        },
        {
            "from": "http://id.d4k.dk/dataset/cdisc/sdtm/v3-4/mk",
            "to": "http://id.d4k.dk/dataset/cdisc/sdtm/v3-4/mk/mklnkid"
        },
        {
            "from": "http://id.d4k.dk/dataset/cdisc/sdtm/v3-4/mk",
            "to": "http://id.d4k.dk/dataset/cdisc/sdtm/v3-4/mk/mklnkgrp"
        },
        {
            "from": "http://id.d4k.dk/dataset/cdisc/sdtm/v3-4/mk",
            "to": "http://id.d4k.dk/dataset/cdisc/sdtm/v3-4/mk/mktestcd"
        },
        {
            "from": "http://id.d4k.dk/dataset/cdisc/sdtm/v3-4/mk",
            "to": "http://id.d4k.dk/dataset/cdisc/sdtm/v3-4/mk/mktest"
        },
        {
            "from": "http://id.d4k.dk/dataset/cdisc/sdtm/v3-4/mk",
            "to": "http://id.d4k.dk/dataset/cdisc/sdtm/v3-4/mk/mkcat"
        },
        {
            "from": "http://id.d4k.dk/dataset/cdisc/sdtm/v3-4/mk",
            "to": "http://id.d4k.dk/dataset/cdisc/sdtm/v3-4/mk/mkscat"
        },
        {
            "from": "http://id.d4k.dk/dataset/cdisc/sdtm/v3-4/mk",
            "to": "http://id.d4k.dk/dataset/cdisc/sdtm/v3-4/mk/mkpos"
        },
        {
            "from": "http://id.d4k.dk/dataset/cdisc/sdtm/v3-4/mk",
            "to": "http://id.d4k.dk/dataset/cdisc/sdtm/v3-4/mk/mkorres"
        },
        {
            "from": "http://id.d4k.dk/dataset/cdisc/sdtm/v3-4/mk",
            "to": "http://id.d4k.dk/dataset/cdisc/sdtm/v3-4/mk/mkorresu"
        },
        {
            "from": "http://id.d4k.dk/dataset/cdisc/sdtm/v3-4/mk",
            "to": "http://id.d4k.dk/dataset/cdisc/sdtm/v3-4/mk/mkstresc"
        },
        {
            "from": "http://id.d4k.dk/dataset/cdisc/sdtm/v3-4/mk",
            "to": "http://id.d4k.dk/dataset/cdisc/sdtm/v3-4/mk/mkstresn"
        },
        {
            "from": "http://id.d4k.dk/dataset/cdisc/sdtm/v3-4/mk",
            "to": "http://id.d4k.dk/dataset/cdisc/sdtm/v3-4/mk/mkstresu"
        },
        {
            "from": "http://id.d4k.dk/dataset/cdisc/sdtm/v3-4/mk",
            "to": "http://id.d4k.dk/dataset/cdisc/sdtm/v3-4/mk/mkstat"
        },
        {
            "from": "http://id.d4k.dk/dataset/cdisc/sdtm/v3-4/mk",
            "to": "http://id.d4k.dk/dataset/cdisc/sdtm/v3-4/mk/mkreasnd"
        },
        {
            "from": "http://id.d4k.dk/dataset/cdisc/sdtm/v3-4/mk",
            "to": "http://id.d4k.dk/dataset/cdisc/sdtm/v3-4/mk/mkloc"
        },
        {
            "from": "http://id.d4k.dk/dataset/cdisc/sdtm/v3-4/mk",
            "to": "http://id.d4k.dk/dataset/cdisc/sdtm/v3-4/mk/mklat"
        },
        {
            "from": "http://id.d4k.dk/dataset/cdisc/sdtm/v3-4/mk",
            "to": "http://id.d4k.dk/dataset/cdisc/sdtm/v3-4/mk/mkdir"
        },
        {
            "from": "http://id.d4k.dk/dataset/cdisc/sdtm/v3-4/mk",
            "to": "http://id.d4k.dk/dataset/cdisc/sdtm/v3-4/mk/mkmethod"
        },
        {
            "from": "http://id.d4k.dk/dataset/cdisc/sdtm/v3-4/mk",
            "to": "http://id.d4k.dk/dataset/cdisc/sdtm/v3-4/mk/mklobxfl"
        },
        {
            "from": "http://id.d4k.dk/dataset/cdisc/sdtm/v3-4/mk",
            "to": "http://id.d4k.dk/dataset/cdisc/sdtm/v3-4/mk/mkblfl"
        },
        {
            "from": "http://id.d4k.dk/dataset/cdisc/sdtm/v3-4/mk",
            "to": "http://id.d4k.dk/dataset/cdisc/sdtm/v3-4/mk/mkdrvfl"
        },
        {
            "from": "http://id.d4k.dk/dataset/cdisc/sdtm/v3-4/mk",
            "to": "http://id.d4k.dk/dataset/cdisc/sdtm/v3-4/mk/mkeval"
        },
        {
            "from": "http://id.d4k.dk/dataset/cdisc/sdtm/v3-4/mk",
            "to": "http://id.d4k.dk/dataset/cdisc/sdtm/v3-4/mk/mkevalid"
        },
        {
            "from": "http://id.d4k.dk/dataset/cdisc/sdtm/v3-4/mk",
            "to": "http://id.d4k.dk/dataset/cdisc/sdtm/v3-4/mk/visitnum"
        },
        {
            "from": "http://id.d4k.dk/dataset/cdisc/sdtm/v3-4/mk",
            "to": "http://id.d4k.dk/dataset/cdisc/sdtm/v3-4/mk/visit"
        },
        {
            "from": "http://id.d4k.dk/dataset/cdisc/sdtm/v3-4/mk",
            "to": "http://id.d4k.dk/dataset/cdisc/sdtm/v3-4/mk/visitdy"
        },
        {
            "from": "http://id.d4k.dk/dataset/cdisc/sdtm/v3-4/mk",
            "to": "http://id.d4k.dk/dataset/cdisc/sdtm/v3-4/mk/taetord"
        },
        {
            "from": "http://id.d4k.dk/dataset/cdisc/sdtm/v3-4/mk",
            "to": "http://id.d4k.dk/dataset/cdisc/sdtm/v3-4/mk/epoch"
        },
        {
            "from": "http://id.d4k.dk/dataset/cdisc/sdtm/v3-4/mk",
            "to": "http://id.d4k.dk/dataset/cdisc/sdtm/v3-4/mk/mkdtc"
        },
        {
            "from": "http://id.d4k.dk/dataset/cdisc/sdtm/v3-4/mk",
            "to": "http://id.d4k.dk/dataset/cdisc/sdtm/v3-4/mk/mkdy"
        },
        {
            "from": "http://id.d4k.dk/dataset/cdisc/sdtm/v3-4/mk",
            "to": "http://id.d4k.dk/dataset/cdisc/sdtm/v3-4/mk/mktpt"
        },
        {
            "from": "http://id.d4k.dk/dataset/cdisc/sdtm/v3-4/mk",
            "to": "http://id.d4k.dk/dataset/cdisc/sdtm/v3-4/mk/mktptnum"
        },
        {
            "from": "http://id.d4k.dk/dataset/cdisc/sdtm/v3-4/mk",
            "to": "http://id.d4k.dk/dataset/cdisc/sdtm/v3-4/mk/mkeltm"
        },
        {
            "from": "http://id.d4k.dk/dataset/cdisc/sdtm/v3-4/mk",
            "to": "http://id.d4k.dk/dataset/cdisc/sdtm/v3-4/mk/mktptref"
        },
        {
            "from": "http://id.d4k.dk/dataset/cdisc/sdtm/v3-4/mk",
            "to": "http://id.d4k.dk/dataset/cdisc/sdtm/v3-4/mk/mkrftdtc"
        },
        {
            "from": "http://id.d4k.dk/dataset/cdisc/sdtm/v3-4/ms",
            "to": "http://id.d4k.dk/dataset/cdisc/sdtm/v3-4/ms/studyid"
        },
        {
            "from": "http://id.d4k.dk/dataset/cdisc/sdtm/v3-4/ms",
            "to": "http://id.d4k.dk/dataset/cdisc/sdtm/v3-4/ms/domain"
        },
        {
            "from": "http://id.d4k.dk/dataset/cdisc/sdtm/v3-4/ms",
            "to": "http://id.d4k.dk/dataset/cdisc/sdtm/v3-4/ms/usubjid"
        },
        {
            "from": "http://id.d4k.dk/dataset/cdisc/sdtm/v3-4/ms",
            "to": "http://id.d4k.dk/dataset/cdisc/sdtm/v3-4/ms/nhoid"
        },
        {
            "from": "http://id.d4k.dk/dataset/cdisc/sdtm/v3-4/ms",
            "to": "http://id.d4k.dk/dataset/cdisc/sdtm/v3-4/ms/msseq"
        },
        {
            "from": "http://id.d4k.dk/dataset/cdisc/sdtm/v3-4/ms",
            "to": "http://id.d4k.dk/dataset/cdisc/sdtm/v3-4/ms/msgrpid"
        },
        {
            "from": "http://id.d4k.dk/dataset/cdisc/sdtm/v3-4/ms",
            "to": "http://id.d4k.dk/dataset/cdisc/sdtm/v3-4/ms/msrefid"
        },
        {
            "from": "http://id.d4k.dk/dataset/cdisc/sdtm/v3-4/ms",
            "to": "http://id.d4k.dk/dataset/cdisc/sdtm/v3-4/ms/msspid"
        },
        {
            "from": "http://id.d4k.dk/dataset/cdisc/sdtm/v3-4/ms",
            "to": "http://id.d4k.dk/dataset/cdisc/sdtm/v3-4/ms/mslnkid"
        },
        {
            "from": "http://id.d4k.dk/dataset/cdisc/sdtm/v3-4/ms",
            "to": "http://id.d4k.dk/dataset/cdisc/sdtm/v3-4/ms/mstestcd"
        },
        {
            "from": "http://id.d4k.dk/dataset/cdisc/sdtm/v3-4/ms",
            "to": "http://id.d4k.dk/dataset/cdisc/sdtm/v3-4/ms/mstest"
        },
        {
            "from": "http://id.d4k.dk/dataset/cdisc/sdtm/v3-4/ms",
            "to": "http://id.d4k.dk/dataset/cdisc/sdtm/v3-4/ms/msagent"
        },
        {
            "from": "http://id.d4k.dk/dataset/cdisc/sdtm/v3-4/ms",
            "to": "http://id.d4k.dk/dataset/cdisc/sdtm/v3-4/ms/msconc"
        },
        {
            "from": "http://id.d4k.dk/dataset/cdisc/sdtm/v3-4/ms",
            "to": "http://id.d4k.dk/dataset/cdisc/sdtm/v3-4/ms/msconcu"
        },
        {
            "from": "http://id.d4k.dk/dataset/cdisc/sdtm/v3-4/ms",
            "to": "http://id.d4k.dk/dataset/cdisc/sdtm/v3-4/ms/mststdtl"
        },
        {
            "from": "http://id.d4k.dk/dataset/cdisc/sdtm/v3-4/ms",
            "to": "http://id.d4k.dk/dataset/cdisc/sdtm/v3-4/ms/mscat"
        },
        {
            "from": "http://id.d4k.dk/dataset/cdisc/sdtm/v3-4/ms",
            "to": "http://id.d4k.dk/dataset/cdisc/sdtm/v3-4/ms/msscat"
        },
        {
            "from": "http://id.d4k.dk/dataset/cdisc/sdtm/v3-4/ms",
            "to": "http://id.d4k.dk/dataset/cdisc/sdtm/v3-4/ms/msorres"
        },
        {
            "from": "http://id.d4k.dk/dataset/cdisc/sdtm/v3-4/ms",
            "to": "http://id.d4k.dk/dataset/cdisc/sdtm/v3-4/ms/msorresu"
        },
        {
            "from": "http://id.d4k.dk/dataset/cdisc/sdtm/v3-4/ms",
            "to": "http://id.d4k.dk/dataset/cdisc/sdtm/v3-4/ms/msstresc"
        },
        {
            "from": "http://id.d4k.dk/dataset/cdisc/sdtm/v3-4/ms",
            "to": "http://id.d4k.dk/dataset/cdisc/sdtm/v3-4/ms/msstresn"
        },
        {
            "from": "http://id.d4k.dk/dataset/cdisc/sdtm/v3-4/ms",
            "to": "http://id.d4k.dk/dataset/cdisc/sdtm/v3-4/ms/msstresu"
        },
        {
            "from": "http://id.d4k.dk/dataset/cdisc/sdtm/v3-4/ms",
            "to": "http://id.d4k.dk/dataset/cdisc/sdtm/v3-4/ms/msnrind"
        },
        {
            "from": "http://id.d4k.dk/dataset/cdisc/sdtm/v3-4/ms",
            "to": "http://id.d4k.dk/dataset/cdisc/sdtm/v3-4/ms/msrescat"
        },
        {
            "from": "http://id.d4k.dk/dataset/cdisc/sdtm/v3-4/ms",
            "to": "http://id.d4k.dk/dataset/cdisc/sdtm/v3-4/ms/msstat"
        },
        {
            "from": "http://id.d4k.dk/dataset/cdisc/sdtm/v3-4/ms",
            "to": "http://id.d4k.dk/dataset/cdisc/sdtm/v3-4/ms/msreasnd"
        },
        {
            "from": "http://id.d4k.dk/dataset/cdisc/sdtm/v3-4/ms",
            "to": "http://id.d4k.dk/dataset/cdisc/sdtm/v3-4/ms/msxfn"
        },
        {
            "from": "http://id.d4k.dk/dataset/cdisc/sdtm/v3-4/ms",
            "to": "http://id.d4k.dk/dataset/cdisc/sdtm/v3-4/ms/msnam"
        },
        {
            "from": "http://id.d4k.dk/dataset/cdisc/sdtm/v3-4/ms",
            "to": "http://id.d4k.dk/dataset/cdisc/sdtm/v3-4/ms/msloinc"
        },
        {
            "from": "http://id.d4k.dk/dataset/cdisc/sdtm/v3-4/ms",
            "to": "http://id.d4k.dk/dataset/cdisc/sdtm/v3-4/ms/msspec"
        },
        {
            "from": "http://id.d4k.dk/dataset/cdisc/sdtm/v3-4/ms",
            "to": "http://id.d4k.dk/dataset/cdisc/sdtm/v3-4/ms/msspccnd"
        },
        {
            "from": "http://id.d4k.dk/dataset/cdisc/sdtm/v3-4/ms",
            "to": "http://id.d4k.dk/dataset/cdisc/sdtm/v3-4/ms/msloc"
        },
        {
            "from": "http://id.d4k.dk/dataset/cdisc/sdtm/v3-4/ms",
            "to": "http://id.d4k.dk/dataset/cdisc/sdtm/v3-4/ms/mslat"
        },
        {
            "from": "http://id.d4k.dk/dataset/cdisc/sdtm/v3-4/ms",
            "to": "http://id.d4k.dk/dataset/cdisc/sdtm/v3-4/ms/msdir"
        },
        {
            "from": "http://id.d4k.dk/dataset/cdisc/sdtm/v3-4/ms",
            "to": "http://id.d4k.dk/dataset/cdisc/sdtm/v3-4/ms/msmethod"
        },
        {
            "from": "http://id.d4k.dk/dataset/cdisc/sdtm/v3-4/ms",
            "to": "http://id.d4k.dk/dataset/cdisc/sdtm/v3-4/ms/msanmeth"
        },
        {
            "from": "http://id.d4k.dk/dataset/cdisc/sdtm/v3-4/ms",
            "to": "http://id.d4k.dk/dataset/cdisc/sdtm/v3-4/ms/mslobxfl"
        },
        {
            "from": "http://id.d4k.dk/dataset/cdisc/sdtm/v3-4/ms",
            "to": "http://id.d4k.dk/dataset/cdisc/sdtm/v3-4/ms/msblfl"
        },
        {
            "from": "http://id.d4k.dk/dataset/cdisc/sdtm/v3-4/ms",
            "to": "http://id.d4k.dk/dataset/cdisc/sdtm/v3-4/ms/msfast"
        },
        {
            "from": "http://id.d4k.dk/dataset/cdisc/sdtm/v3-4/ms",
            "to": "http://id.d4k.dk/dataset/cdisc/sdtm/v3-4/ms/msdrvfl"
        },
        {
            "from": "http://id.d4k.dk/dataset/cdisc/sdtm/v3-4/ms",
            "to": "http://id.d4k.dk/dataset/cdisc/sdtm/v3-4/ms/mseval"
        },
        {
            "from": "http://id.d4k.dk/dataset/cdisc/sdtm/v3-4/ms",
            "to": "http://id.d4k.dk/dataset/cdisc/sdtm/v3-4/ms/msevalid"
        },
        {
            "from": "http://id.d4k.dk/dataset/cdisc/sdtm/v3-4/ms",
            "to": "http://id.d4k.dk/dataset/cdisc/sdtm/v3-4/ms/msacptfl"
        },
        {
            "from": "http://id.d4k.dk/dataset/cdisc/sdtm/v3-4/ms",
            "to": "http://id.d4k.dk/dataset/cdisc/sdtm/v3-4/ms/mslloq"
        },
        {
            "from": "http://id.d4k.dk/dataset/cdisc/sdtm/v3-4/ms",
            "to": "http://id.d4k.dk/dataset/cdisc/sdtm/v3-4/ms/msuloq"
        },
        {
            "from": "http://id.d4k.dk/dataset/cdisc/sdtm/v3-4/ms",
            "to": "http://id.d4k.dk/dataset/cdisc/sdtm/v3-4/ms/msrepnum"
        },
        {
            "from": "http://id.d4k.dk/dataset/cdisc/sdtm/v3-4/ms",
            "to": "http://id.d4k.dk/dataset/cdisc/sdtm/v3-4/ms/visitnum"
        },
        {
            "from": "http://id.d4k.dk/dataset/cdisc/sdtm/v3-4/ms",
            "to": "http://id.d4k.dk/dataset/cdisc/sdtm/v3-4/ms/visit"
        },
        {
            "from": "http://id.d4k.dk/dataset/cdisc/sdtm/v3-4/ms",
            "to": "http://id.d4k.dk/dataset/cdisc/sdtm/v3-4/ms/visitdy"
        },
        {
            "from": "http://id.d4k.dk/dataset/cdisc/sdtm/v3-4/ms",
            "to": "http://id.d4k.dk/dataset/cdisc/sdtm/v3-4/ms/taetord"
        },
        {
            "from": "http://id.d4k.dk/dataset/cdisc/sdtm/v3-4/ms",
            "to": "http://id.d4k.dk/dataset/cdisc/sdtm/v3-4/ms/epoch"
        },
        {
            "from": "http://id.d4k.dk/dataset/cdisc/sdtm/v3-4/ms",
            "to": "http://id.d4k.dk/dataset/cdisc/sdtm/v3-4/ms/msdtc"
        },
        {
            "from": "http://id.d4k.dk/dataset/cdisc/sdtm/v3-4/ms",
            "to": "http://id.d4k.dk/dataset/cdisc/sdtm/v3-4/ms/msdy"
        },
        {
            "from": "http://id.d4k.dk/dataset/cdisc/sdtm/v3-4/ms",
            "to": "http://id.d4k.dk/dataset/cdisc/sdtm/v3-4/ms/msdur"
        },
        {
            "from": "http://id.d4k.dk/dataset/cdisc/sdtm/v3-4/ms",
            "to": "http://id.d4k.dk/dataset/cdisc/sdtm/v3-4/ms/mstpt"
        },
        {
            "from": "http://id.d4k.dk/dataset/cdisc/sdtm/v3-4/ms",
            "to": "http://id.d4k.dk/dataset/cdisc/sdtm/v3-4/ms/mstptnum"
        },
        {
            "from": "http://id.d4k.dk/dataset/cdisc/sdtm/v3-4/ms",
            "to": "http://id.d4k.dk/dataset/cdisc/sdtm/v3-4/ms/mseltm"
        },
        {
            "from": "http://id.d4k.dk/dataset/cdisc/sdtm/v3-4/ms",
            "to": "http://id.d4k.dk/dataset/cdisc/sdtm/v3-4/ms/mstptref"
        },
        {
            "from": "http://id.d4k.dk/dataset/cdisc/sdtm/v3-4/ms",
            "to": "http://id.d4k.dk/dataset/cdisc/sdtm/v3-4/ms/msrftdtc"
        },
        {
            "from": "http://id.d4k.dk/dataset/cdisc/sdtm/v3-4/ms",
            "to": "http://id.d4k.dk/dataset/cdisc/sdtm/v3-4/ms/msevlint"
        },
        {
            "from": "http://id.d4k.dk/dataset/cdisc/sdtm/v3-4/ms",
            "to": "http://id.d4k.dk/dataset/cdisc/sdtm/v3-4/ms/msevintx"
        },
        {
            "from": "http://id.d4k.dk/dataset/cdisc/sdtm/v3-4/nv",
            "to": "http://id.d4k.dk/dataset/cdisc/sdtm/v3-4/nv/studyid"
        },
        {
            "from": "http://id.d4k.dk/dataset/cdisc/sdtm/v3-4/nv",
            "to": "http://id.d4k.dk/dataset/cdisc/sdtm/v3-4/nv/domain"
        },
        {
            "from": "http://id.d4k.dk/dataset/cdisc/sdtm/v3-4/nv",
            "to": "http://id.d4k.dk/dataset/cdisc/sdtm/v3-4/nv/usubjid"
        },
        {
            "from": "http://id.d4k.dk/dataset/cdisc/sdtm/v3-4/nv",
            "to": "http://id.d4k.dk/dataset/cdisc/sdtm/v3-4/nv/focid"
        },
        {
            "from": "http://id.d4k.dk/dataset/cdisc/sdtm/v3-4/nv",
            "to": "http://id.d4k.dk/dataset/cdisc/sdtm/v3-4/nv/nvseq"
        },
        {
            "from": "http://id.d4k.dk/dataset/cdisc/sdtm/v3-4/nv",
            "to": "http://id.d4k.dk/dataset/cdisc/sdtm/v3-4/nv/nvgrpid"
        },
        {
            "from": "http://id.d4k.dk/dataset/cdisc/sdtm/v3-4/nv",
            "to": "http://id.d4k.dk/dataset/cdisc/sdtm/v3-4/nv/nvrefid"
        },
        {
            "from": "http://id.d4k.dk/dataset/cdisc/sdtm/v3-4/nv",
            "to": "http://id.d4k.dk/dataset/cdisc/sdtm/v3-4/nv/nvspid"
        },
        {
            "from": "http://id.d4k.dk/dataset/cdisc/sdtm/v3-4/nv",
            "to": "http://id.d4k.dk/dataset/cdisc/sdtm/v3-4/nv/nvlnkid"
        },
        {
            "from": "http://id.d4k.dk/dataset/cdisc/sdtm/v3-4/nv",
            "to": "http://id.d4k.dk/dataset/cdisc/sdtm/v3-4/nv/nvlnkgrp"
        },
        {
            "from": "http://id.d4k.dk/dataset/cdisc/sdtm/v3-4/nv",
            "to": "http://id.d4k.dk/dataset/cdisc/sdtm/v3-4/nv/nvtestcd"
        },
        {
            "from": "http://id.d4k.dk/dataset/cdisc/sdtm/v3-4/nv",
            "to": "http://id.d4k.dk/dataset/cdisc/sdtm/v3-4/nv/nvtest"
        },
        {
            "from": "http://id.d4k.dk/dataset/cdisc/sdtm/v3-4/nv",
            "to": "http://id.d4k.dk/dataset/cdisc/sdtm/v3-4/nv/nvcat"
        },
        {
            "from": "http://id.d4k.dk/dataset/cdisc/sdtm/v3-4/nv",
            "to": "http://id.d4k.dk/dataset/cdisc/sdtm/v3-4/nv/nvscat"
        },
        {
            "from": "http://id.d4k.dk/dataset/cdisc/sdtm/v3-4/nv",
            "to": "http://id.d4k.dk/dataset/cdisc/sdtm/v3-4/nv/nvorres"
        },
        {
            "from": "http://id.d4k.dk/dataset/cdisc/sdtm/v3-4/nv",
            "to": "http://id.d4k.dk/dataset/cdisc/sdtm/v3-4/nv/nvorresu"
        },
        {
            "from": "http://id.d4k.dk/dataset/cdisc/sdtm/v3-4/nv",
            "to": "http://id.d4k.dk/dataset/cdisc/sdtm/v3-4/nv/nvstresc"
        },
        {
            "from": "http://id.d4k.dk/dataset/cdisc/sdtm/v3-4/nv",
            "to": "http://id.d4k.dk/dataset/cdisc/sdtm/v3-4/nv/nvstresn"
        },
        {
            "from": "http://id.d4k.dk/dataset/cdisc/sdtm/v3-4/nv",
            "to": "http://id.d4k.dk/dataset/cdisc/sdtm/v3-4/nv/nvstresu"
        },
        {
            "from": "http://id.d4k.dk/dataset/cdisc/sdtm/v3-4/nv",
            "to": "http://id.d4k.dk/dataset/cdisc/sdtm/v3-4/nv/nvstat"
        },
        {
            "from": "http://id.d4k.dk/dataset/cdisc/sdtm/v3-4/nv",
            "to": "http://id.d4k.dk/dataset/cdisc/sdtm/v3-4/nv/nvreasnd"
        },
        {
            "from": "http://id.d4k.dk/dataset/cdisc/sdtm/v3-4/nv",
            "to": "http://id.d4k.dk/dataset/cdisc/sdtm/v3-4/nv/nvloc"
        },
        {
            "from": "http://id.d4k.dk/dataset/cdisc/sdtm/v3-4/nv",
            "to": "http://id.d4k.dk/dataset/cdisc/sdtm/v3-4/nv/nvlat"
        },
        {
            "from": "http://id.d4k.dk/dataset/cdisc/sdtm/v3-4/nv",
            "to": "http://id.d4k.dk/dataset/cdisc/sdtm/v3-4/nv/nvdir"
        },
        {
            "from": "http://id.d4k.dk/dataset/cdisc/sdtm/v3-4/nv",
            "to": "http://id.d4k.dk/dataset/cdisc/sdtm/v3-4/nv/nvmethod"
        },
        {
            "from": "http://id.d4k.dk/dataset/cdisc/sdtm/v3-4/nv",
            "to": "http://id.d4k.dk/dataset/cdisc/sdtm/v3-4/nv/nvlobxfl"
        },
        {
            "from": "http://id.d4k.dk/dataset/cdisc/sdtm/v3-4/nv",
            "to": "http://id.d4k.dk/dataset/cdisc/sdtm/v3-4/nv/nvblfl"
        },
        {
            "from": "http://id.d4k.dk/dataset/cdisc/sdtm/v3-4/nv",
            "to": "http://id.d4k.dk/dataset/cdisc/sdtm/v3-4/nv/nvdrvfl"
        },
        {
            "from": "http://id.d4k.dk/dataset/cdisc/sdtm/v3-4/nv",
            "to": "http://id.d4k.dk/dataset/cdisc/sdtm/v3-4/nv/nveval"
        },
        {
            "from": "http://id.d4k.dk/dataset/cdisc/sdtm/v3-4/nv",
            "to": "http://id.d4k.dk/dataset/cdisc/sdtm/v3-4/nv/nvevalid"
        },
        {
            "from": "http://id.d4k.dk/dataset/cdisc/sdtm/v3-4/nv",
            "to": "http://id.d4k.dk/dataset/cdisc/sdtm/v3-4/nv/visitnum"
        },
        {
            "from": "http://id.d4k.dk/dataset/cdisc/sdtm/v3-4/nv",
            "to": "http://id.d4k.dk/dataset/cdisc/sdtm/v3-4/nv/visit"
        },
        {
            "from": "http://id.d4k.dk/dataset/cdisc/sdtm/v3-4/nv",
            "to": "http://id.d4k.dk/dataset/cdisc/sdtm/v3-4/nv/visitdy"
        },
        {
            "from": "http://id.d4k.dk/dataset/cdisc/sdtm/v3-4/nv",
            "to": "http://id.d4k.dk/dataset/cdisc/sdtm/v3-4/nv/taetord"
        },
        {
            "from": "http://id.d4k.dk/dataset/cdisc/sdtm/v3-4/nv",
            "to": "http://id.d4k.dk/dataset/cdisc/sdtm/v3-4/nv/epoch"
        },
        {
            "from": "http://id.d4k.dk/dataset/cdisc/sdtm/v3-4/nv",
            "to": "http://id.d4k.dk/dataset/cdisc/sdtm/v3-4/nv/nvdtc"
        },
        {
            "from": "http://id.d4k.dk/dataset/cdisc/sdtm/v3-4/nv",
            "to": "http://id.d4k.dk/dataset/cdisc/sdtm/v3-4/nv/nvdy"
        },
        {
            "from": "http://id.d4k.dk/dataset/cdisc/sdtm/v3-4/nv",
            "to": "http://id.d4k.dk/dataset/cdisc/sdtm/v3-4/nv/nvtpt"
        },
        {
            "from": "http://id.d4k.dk/dataset/cdisc/sdtm/v3-4/nv",
            "to": "http://id.d4k.dk/dataset/cdisc/sdtm/v3-4/nv/nvtptnum"
        },
        {
            "from": "http://id.d4k.dk/dataset/cdisc/sdtm/v3-4/nv",
            "to": "http://id.d4k.dk/dataset/cdisc/sdtm/v3-4/nv/nveltm"
        },
        {
            "from": "http://id.d4k.dk/dataset/cdisc/sdtm/v3-4/nv",
            "to": "http://id.d4k.dk/dataset/cdisc/sdtm/v3-4/nv/nvtptref"
        },
        {
            "from": "http://id.d4k.dk/dataset/cdisc/sdtm/v3-4/nv",
            "to": "http://id.d4k.dk/dataset/cdisc/sdtm/v3-4/nv/nvrftdtc"
        },
        {
            "from": "http://id.d4k.dk/dataset/cdisc/sdtm/v3-4/oe",
            "to": "http://id.d4k.dk/dataset/cdisc/sdtm/v3-4/oe/studyid"
        },
        {
            "from": "http://id.d4k.dk/dataset/cdisc/sdtm/v3-4/oe",
            "to": "http://id.d4k.dk/dataset/cdisc/sdtm/v3-4/oe/domain"
        },
        {
            "from": "http://id.d4k.dk/dataset/cdisc/sdtm/v3-4/oe",
            "to": "http://id.d4k.dk/dataset/cdisc/sdtm/v3-4/oe/usubjid"
        },
        {
            "from": "http://id.d4k.dk/dataset/cdisc/sdtm/v3-4/oe",
            "to": "http://id.d4k.dk/dataset/cdisc/sdtm/v3-4/oe/focid"
        },
        {
            "from": "http://id.d4k.dk/dataset/cdisc/sdtm/v3-4/oe",
            "to": "http://id.d4k.dk/dataset/cdisc/sdtm/v3-4/oe/oeseq"
        },
        {
            "from": "http://id.d4k.dk/dataset/cdisc/sdtm/v3-4/oe",
            "to": "http://id.d4k.dk/dataset/cdisc/sdtm/v3-4/oe/oegrpid"
        },
        {
            "from": "http://id.d4k.dk/dataset/cdisc/sdtm/v3-4/oe",
            "to": "http://id.d4k.dk/dataset/cdisc/sdtm/v3-4/oe/oelnkid"
        },
        {
            "from": "http://id.d4k.dk/dataset/cdisc/sdtm/v3-4/oe",
            "to": "http://id.d4k.dk/dataset/cdisc/sdtm/v3-4/oe/oelnkgrp"
        },
        {
            "from": "http://id.d4k.dk/dataset/cdisc/sdtm/v3-4/oe",
            "to": "http://id.d4k.dk/dataset/cdisc/sdtm/v3-4/oe/oetestcd"
        },
        {
            "from": "http://id.d4k.dk/dataset/cdisc/sdtm/v3-4/oe",
            "to": "http://id.d4k.dk/dataset/cdisc/sdtm/v3-4/oe/oetest"
        },
        {
            "from": "http://id.d4k.dk/dataset/cdisc/sdtm/v3-4/oe",
            "to": "http://id.d4k.dk/dataset/cdisc/sdtm/v3-4/oe/oetstdtl"
        },
        {
            "from": "http://id.d4k.dk/dataset/cdisc/sdtm/v3-4/oe",
            "to": "http://id.d4k.dk/dataset/cdisc/sdtm/v3-4/oe/oecat"
        },
        {
            "from": "http://id.d4k.dk/dataset/cdisc/sdtm/v3-4/oe",
            "to": "http://id.d4k.dk/dataset/cdisc/sdtm/v3-4/oe/oescat"
        },
        {
            "from": "http://id.d4k.dk/dataset/cdisc/sdtm/v3-4/oe",
            "to": "http://id.d4k.dk/dataset/cdisc/sdtm/v3-4/oe/oeorres"
        },
        {
            "from": "http://id.d4k.dk/dataset/cdisc/sdtm/v3-4/oe",
            "to": "http://id.d4k.dk/dataset/cdisc/sdtm/v3-4/oe/oeorresu"
        },
        {
            "from": "http://id.d4k.dk/dataset/cdisc/sdtm/v3-4/oe",
            "to": "http://id.d4k.dk/dataset/cdisc/sdtm/v3-4/oe/oeornrlo"
        },
        {
            "from": "http://id.d4k.dk/dataset/cdisc/sdtm/v3-4/oe",
            "to": "http://id.d4k.dk/dataset/cdisc/sdtm/v3-4/oe/oeornrhi"
        },
        {
            "from": "http://id.d4k.dk/dataset/cdisc/sdtm/v3-4/oe",
            "to": "http://id.d4k.dk/dataset/cdisc/sdtm/v3-4/oe/oestresc"
        },
        {
            "from": "http://id.d4k.dk/dataset/cdisc/sdtm/v3-4/oe",
            "to": "http://id.d4k.dk/dataset/cdisc/sdtm/v3-4/oe/oestresn"
        },
        {
            "from": "http://id.d4k.dk/dataset/cdisc/sdtm/v3-4/oe",
            "to": "http://id.d4k.dk/dataset/cdisc/sdtm/v3-4/oe/oestresu"
        },
        {
            "from": "http://id.d4k.dk/dataset/cdisc/sdtm/v3-4/oe",
            "to": "http://id.d4k.dk/dataset/cdisc/sdtm/v3-4/oe/oestnrlo"
        },
        {
            "from": "http://id.d4k.dk/dataset/cdisc/sdtm/v3-4/oe",
            "to": "http://id.d4k.dk/dataset/cdisc/sdtm/v3-4/oe/oestnrhi"
        },
        {
            "from": "http://id.d4k.dk/dataset/cdisc/sdtm/v3-4/oe",
            "to": "http://id.d4k.dk/dataset/cdisc/sdtm/v3-4/oe/oestnrc"
        },
        {
            "from": "http://id.d4k.dk/dataset/cdisc/sdtm/v3-4/oe",
            "to": "http://id.d4k.dk/dataset/cdisc/sdtm/v3-4/oe/oenrind"
        },
        {
            "from": "http://id.d4k.dk/dataset/cdisc/sdtm/v3-4/oe",
            "to": "http://id.d4k.dk/dataset/cdisc/sdtm/v3-4/oe/oerescat"
        },
        {
