{
    "CANONICAL_REF": [
        {
            "data_type": "quantity",
            "node": "RESULT",
            "property": "value",
            "uri": "http://id.d4k.dk/dataset/sdtm_model/demographics/AGE/c1"
        },
        {
            "data_type": "quantity",
            "node": "RESULT",
            "property": "unit",
            "uri": "http://id.d4k.dk/dataset/sdtm_model/demographics/AGEU/c1"
        },
        {
            "data_type": "coding",
            "node": "RESULT",
            "property": "code",
            "uri": "http://id.d4k.dk/dataset/sdtm_model/demographics/SEX/c1"
        },
        {
            "data_type": "coding",
            "node": "RESULT",
            "property": "code",
            "uri": "http://id.d4k.dk/dataset/sdtm_model/demographics/RACE/c1"
        },
        {
            "data_type": "coding",
            "node": "RESULT",
            "property": "code",
            "uri": "http://id.d4k.dk/dataset/sdtm_model/demographics/ETHNIC/c1"
        },
        {
            "data_type": "codeable_concept",
            "node": "TERM",
            "property": "text",
            "uri": "http://id.d4k.dk/dataset/sdtm_model/events/--TERM/c1"
        },
        {
            "data_type": "date_time",
            "node": "PERIOD START",
            "property": "value",
            "uri": "http://id.d4k.dk/dataset/sdtm_model/events/--STDTC/c1"
        },
        {
            "data_type": "date_time",
            "node": "PERIOD END",
            "property": "value",
            "uri": "http://id.d4k.dk/dataset/sdtm_model/events/--ENDTC/c1"
        },
        {
            "data_type": "codeable_concept",
            "node": "TREATMENT",
            "property": "text",
            "uri": "http://id.d4k.dk/dataset/sdtm_model/exposure/--TRT/c1"
        },
        {
            "data_type": "date_time",
            "node": "PERIOD START",
            "property": "value",
            "uri": "http://id.d4k.dk/dataset/sdtm_model/exposure/--STDTC/c1"
        },
        {
            "data_type": "date_time",
            "node": "PERIOD END",
            "property": "value",
            "uri": "http://id.d4k.dk/dataset/sdtm_model/exposure/--ENDTC/c1"
        },
        {
            "data_type": "coding",
            "node": "RESULT",
            "property": "code",
            "uri": "http://id.d4k.dk/dataset/sdtm_model/findings/--ORRES/c1"
        },
        {
            "data_type": "quantity",
            "node": "RESULT",
            "property": "value",
            "uri": "http://id.d4k.dk/dataset/sdtm_model/findings/--ORRES/c2"
        },
        {
            "data_type": "quantity",
            "node": "RESULT",
            "property": "unit",
            "uri": "http://id.d4k.dk/dataset/sdtm_model/findings/--ORRESU/c1"
        },
        {
            "data_type": "date_time",
            "node": "DATE TIME",
            "property": "value",
            "uri": "http://id.d4k.dk/dataset/sdtm_model/findings/--DTC/c1"
        }
    ],
    "OTHER_SOURCE": [
        {
            "description": "Designed for this project.",
            "uri": "http://id.d4k.dk/dataset/source/sdtm_model",
            "url": ""
        }
    ],
    "SDTM_CLASS": [
        {
            "name": "demographics",
            "uri": "http://id.d4k.dk/dataset/sdtm_model/demographics"
        },
        {
            "name": "events",
            "uri": "http://id.d4k.dk/dataset/sdtm_model/events"
        },
        {
            "name": "exposure",
            "uri": "http://id.d4k.dk/dataset/sdtm_model/exposure"
        },
        {
            "name": "findings",
            "uri": "http://id.d4k.dk/dataset/sdtm_model/findings"
        }
    ],
    "SDTM_MODEL": [
        {
            "name": "SDTM Model",
            "uri": "http://id.d4k.dk/dataset/sdtm_model"
        }
    ],
    "SDTM_MODEL_VARIABLE": [
        {
            "bc": "Age",
            "name": "AGE",
            "uri": "http://id.d4k.dk/dataset/sdtm_model/demographics/AGE"
        },
        {
            "bc": "Age",
            "name": "AGEU",
            "uri": "http://id.d4k.dk/dataset/sdtm_model/demographics/AGEU"
        },
        {
            "bc": "Sex",
            "name": "SEX",
            "uri": "http://id.d4k.dk/dataset/sdtm_model/demographics/SEX"
        },
        {
            "bc": "Race",
            "name": "RACE",
            "uri": "http://id.d4k.dk/dataset/sdtm_model/demographics/RACE"
        },
        {
            "bc": "Ethnicity",
            "name": "ETHNIC",
            "uri": "http://id.d4k.dk/dataset/sdtm_model/demographics/ETHNIC"
        },
        {
            "bc": "",
            "name": "--TERM",
            "uri": "http://id.d4k.dk/dataset/sdtm_model/events/--TERM"
        },
        {
            "bc": "",
            "name": "--STDTC",
            "uri": "http://id.d4k.dk/dataset/sdtm_model/events/--STDTC"
        },
        {
            "bc": "",
            "name": "--ENDTC",
            "uri": "http://id.d4k.dk/dataset/sdtm_model/events/--ENDTC"
        },
        {
            "bc": "",
            "name": "--TRT",
            "uri": "http://id.d4k.dk/dataset/sdtm_model/exposure/--TRT"
        },
        {
            "bc": "",
            "name": "--STDTC",
            "uri": "http://id.d4k.dk/dataset/sdtm_model/exposure/--STDTC"
        },
        {
            "bc": "",
            "name": "--ENDTC",
            "uri": "http://id.d4k.dk/dataset/sdtm_model/exposure/--ENDTC"
        },
        {
            "bc": "",
            "name": "--ORRES",
            "uri": "http://id.d4k.dk/dataset/sdtm_model/findings/--ORRES"
        },
        {
            "bc": "",
            "name": "--ORRESU",
            "uri": "http://id.d4k.dk/dataset/sdtm_model/findings/--ORRESU"
        },
        {
            "bc": "",
            "name": "--DTC",
            "uri": "http://id.d4k.dk/dataset/sdtm_model/findings/--DTC"
        },
        {
            "bc": "",
            "name": "--DY",
            "uri": "http://id.d4k.dk/dataset/sdtm_model/findings/--DY"
        }
    ]
}