{
    "API_SOURCE": [
        {
            "description": "The CDISC SDTM IG taken from the CDISC Library API.",
            "uri": "http://id.d4k.dk/dataset/source/cdisc/sdtm",
            "url": "https://api.library.cdisc.org/api/mdr/sdtmig/3-4/datasets?expand=false"
        }
    ],
    "SDTM_DATASET": [
        {
            "description": "Procedure Agents",
            "label": "Procedure Agents",
            "name": "AG",
            "ordinal": "2",
            "structure": "One record per recorded intervention occurrence per subject",
            "uri": "http://id.d4k.dk/dataset/cdisc/sdtm/v3-4/ag"
        },
        {
            "description": "Concomitant/Prior Medications",
            "label": "Concomitant/Prior Medications",
            "name": "CM",
            "ordinal": "6",
            "structure": "One record per recorded intervention occurrence or constant-dosing interval per subject",
            "uri": "http://id.d4k.dk/dataset/cdisc/sdtm/v3-4/cm"
        },
        {
            "description": "Exposure as Collected",
            "label": "Exposure as Collected",
            "name": "EC",
            "ordinal": "15",
            "structure": "One record per protocol-specified study treatment, collected-dosing interval, per subject, per mood",
            "uri": "http://id.d4k.dk/dataset/cdisc/sdtm/v3-4/ec"
        },
        {
            "description": "Exposure",
            "label": "Exposure",
            "name": "EX",
            "ordinal": "17",
            "structure": "One record per protocol-specified study treatment, constant-dosing interval, per subject",
            "uri": "http://id.d4k.dk/dataset/cdisc/sdtm/v3-4/ex"
        },
        {
            "description": "Meal Data",
            "label": "Meal Data",
            "name": "ML",
            "ordinal": "29",
            "structure": "One record per food product occurrence or constant intake interval per subject",
            "uri": "http://id.d4k.dk/dataset/cdisc/sdtm/v3-4/ml"
        },
        {
            "description": "Procedures",
            "label": "Procedures",
            "name": "PR",
            "ordinal": "37",
            "structure": "One record per recorded procedure per occurrence per subject",
            "uri": "http://id.d4k.dk/dataset/cdisc/sdtm/v3-4/pr"
        },
        {
            "description": "Substance Use",
            "label": "Substance Use",
            "name": "SU",
            "ordinal": "50",
            "structure": "One record per substance type per reported occurrence per subject",
            "uri": "http://id.d4k.dk/dataset/cdisc/sdtm/v3-4/su"
        },
        {
            "description": "Adverse Events",
            "label": "Adverse Events",
            "name": "AE",
            "ordinal": "1",
            "structure": "One record per adverse event per subject",
            "uri": "http://id.d4k.dk/dataset/cdisc/sdtm/v3-4/ae"
        },
        {
            "description": "Biospecimen Events",
            "label": "Biospecimen Events",
            "name": "BE",
            "ordinal": "3",
            "structure": "One record per instance per biospecimen event per biospecimen identifier per subject",
            "uri": "http://id.d4k.dk/dataset/cdisc/sdtm/v3-4/be"
        },
        {
            "description": "Clinical Events",
            "label": "Clinical Events",
            "name": "CE",
            "ordinal": "5",
            "structure": "One record per event per subject",
            "uri": "http://id.d4k.dk/dataset/cdisc/sdtm/v3-4/ce"
        },
        {
            "description": "Disposition",
            "label": "Disposition",
            "name": "DS",
            "ordinal": "13",
            "structure": "One record per disposition status or protocol milestone per subject",
            "uri": "http://id.d4k.dk/dataset/cdisc/sdtm/v3-4/ds"
        },
        {
            "description": "Protocol Deviations",
            "label": "Protocol Deviations",
            "name": "DV",
            "ordinal": "14",
            "structure": "One record per protocol deviation per subject",
            "uri": "http://id.d4k.dk/dataset/cdisc/sdtm/v3-4/dv"
        },
        {
            "description": "Healthcare Encounters",
            "label": "Healthcare Encounters",
            "name": "HO",
            "ordinal": "21",
            "structure": "One record per healthcare encounter per subject",
            "uri": "http://id.d4k.dk/dataset/cdisc/sdtm/v3-4/ho"
        },
        {
            "description": "Medical History",
            "label": "Medical History",
            "name": "MH",
            "ordinal": "26",
            "structure": "One record per medical history event per subject",
            "uri": "http://id.d4k.dk/dataset/cdisc/sdtm/v3-4/mh"
        },
        {
            "description": "Biospecimen Findings",
            "label": "Biospecimen Findings",
            "name": "BS",
            "ordinal": "4",
            "structure": "One record per measurement per biospecimen identifier per subject",
            "uri": "http://id.d4k.dk/dataset/cdisc/sdtm/v3-4/bs"
        },
        {
            "description": "Cell Phenotype Findings",
            "label": "Cell Phenotype Findings",
            "name": "CP",
            "ordinal": "8",
            "structure": "One record per test per specimen per timepoint per visit per subject",
            "uri": "http://id.d4k.dk/dataset/cdisc/sdtm/v3-4/cp"
        },
        {
            "description": "Cardiovascular System Findings",
            "label": "Cardiovascular System Findings",
            "name": "CV",
            "ordinal": "9",
            "structure": "One record per finding or result per time point per visit per subject",
            "uri": "http://id.d4k.dk/dataset/cdisc/sdtm/v3-4/cv"
        },
        {
            "description": "Product Accountability",
            "label": "Product Accountability",
            "name": "DA",
            "ordinal": "10",
            "structure": "One record per product accountability finding per subject",
            "uri": "http://id.d4k.dk/dataset/cdisc/sdtm/v3-4/da"
        },
        {
            "description": "Death Details",
            "label": "Death Details",
            "name": "DD",
            "ordinal": "11",
            "structure": "One record per finding per subject",
            "uri": "http://id.d4k.dk/dataset/cdisc/sdtm/v3-4/dd"
        },
        {
            "description": "ECG Test Results",
            "label": "ECG Test Results",
            "name": "EG",
            "ordinal": "16",
            "structure": "One record per ECG observation per replicate per time point or one record per ECG observation per beat per visit per subject",
            "uri": "http://id.d4k.dk/dataset/cdisc/sdtm/v3-4/eg"
        },
        {
            "description": "Functional Tests",
            "label": "Functional Tests",
            "name": "FT",
            "ordinal": "19",
            "structure": "One record per Functional Test finding per time point per visit per subject",
            "uri": "http://id.d4k.dk/dataset/cdisc/sdtm/v3-4/ft"
        },
        {
            "description": "Genomics Findings",
            "label": "Genomics Findings",
            "name": "GF",
            "ordinal": "20",
            "structure": "One record per finding per observation per biospecimen per subject",
            "uri": "http://id.d4k.dk/dataset/cdisc/sdtm/v3-4/gf"
        },
        {
            "description": "Inclusion/Exclusion Criteria Not Met",
            "label": "Inclusion/Exclusion Criteria Not Met",
            "name": "IE",
            "ordinal": "22",
            "structure": "One record per inclusion/exclusion criterion not met per subject",
            "uri": "http://id.d4k.dk/dataset/cdisc/sdtm/v3-4/ie"
        },
        {
            "description": "Immunogenicity Specimen Assessments",
            "label": "Immunogenicity Specimen Assessments",
            "name": "IS",
            "ordinal": "23",
            "structure": "One record per test per visit per subject",
            "uri": "http://id.d4k.dk/dataset/cdisc/sdtm/v3-4/is"
        },
        {
            "description": "Laboratory Test Results",
            "label": "Laboratory Test Results",
            "name": "LB",
            "ordinal": "24",
            "structure": "One record per lab test per time point per visit per subject",
            "uri": "http://id.d4k.dk/dataset/cdisc/sdtm/v3-4/lb"
        },
        {
            "description": "Microbiology Specimen",
            "label": "Microbiology Specimen",
            "name": "MB",
            "ordinal": "25",
            "structure": "One record per microbiology specimen finding per time point per visit per subject",
            "uri": "http://id.d4k.dk/dataset/cdisc/sdtm/v3-4/mb"
        },
        {
            "description": "Microscopic Findings",
            "label": "Microscopic Findings",
            "name": "MI",
            "ordinal": "27",
            "structure": "One record per finding per specimen per subject",
            "uri": "http://id.d4k.dk/dataset/cdisc/sdtm/v3-4/mi"
        },
        {
            "description": "Musculoskeletal System Findings",
            "label": "Musculoskeletal System Findings",
            "name": "MK",
            "ordinal": "28",
            "structure": "One record per assessment per visit per subject",
            "uri": "http://id.d4k.dk/dataset/cdisc/sdtm/v3-4/mk"
        },
        {
            "description": "Microbiology Susceptibility",
            "label": "Microbiology Susceptibility",
            "name": "MS",
            "ordinal": "30",
            "structure": "One record per microbiology susceptibility test (or other organism-related finding) per organism found in MB",
            "uri": "http://id.d4k.dk/dataset/cdisc/sdtm/v3-4/ms"
        },
        {
            "description": "Nervous System Findings",
            "label": "Nervous System Findings",
            "name": "NV",
            "ordinal": "31",
            "structure": "One record per finding per location per time point per visit per subject",
            "uri": "http://id.d4k.dk/dataset/cdisc/sdtm/v3-4/nv"
        },
        {
            "description": "Ophthalmic Examinations",
            "label": "Ophthalmic Examinations",
            "name": "OE",
            "ordinal": "32",
            "structure": "One record per ophthalmic finding per method per location, per time point per visit per subject",
            "uri": "http://id.d4k.dk/dataset/cdisc/sdtm/v3-4/oe"
        },
        {
            "description": "Pharmacokinetics Concentrations",
            "label": "Pharmacokinetics Concentrations",
            "name": "PC",
            "ordinal": "34",
            "structure": "One record per sample characteristic or time-point concentration per reference time point or per analyte per subject",
            "uri": "http://id.d4k.dk/dataset/cdisc/sdtm/v3-4/pc"
        },
        {
            "description": "Physical Examination",
            "label": "Physical Examination",
            "name": "PE",
            "ordinal": "35",
            "structure": "One record per body system or abnormality per visit per subject",
            "uri": "http://id.d4k.dk/dataset/cdisc/sdtm/v3-4/pe"
        },
        {
            "description": "Pharmacokinetics Parameters",
            "label": "Pharmacokinetics Parameters",
            "name": "PP",
            "ordinal": "36",
            "structure": "One record per PK parameter per time-concentration profile per modeling method per subject",
            "uri": "http://id.d4k.dk/dataset/cdisc/sdtm/v3-4/pp"
        },
        {
            "description": "Questionnaires",
            "label": "Questionnaires",
            "name": "QS",
            "ordinal": "38",
            "structure": "One record per questionnaire per question per time point per visit per subject",
            "uri": "http://id.d4k.dk/dataset/cdisc/sdtm/v3-4/qs"
        },
        {
            "description": "Respiratory System Findings",
            "label": "Respiratory System Findings",
            "name": "RE",
            "ordinal": "39",
            "structure": "One record per finding or result per time point per visit per subject",
            "uri": "http://id.d4k.dk/dataset/cdisc/sdtm/v3-4/re"
        },
        {
            "description": "Reproductive System Findings",
            "label": "Reproductive System Findings",
            "name": "RP",
            "ordinal": "43",
            "structure": "One record per finding or result per time point per visit per subject",
            "uri": "http://id.d4k.dk/dataset/cdisc/sdtm/v3-4/rp"
        },
        {
            "description": "Disease Response and Clin Classification",
            "label": "Disease Response and Clin Classification",
            "name": "RS",
            "ordinal": "44",
            "structure": "One record per response assessment or clinical classification assessment per time point per visit per subject per assessor per medical evaluator",
            "uri": "http://id.d4k.dk/dataset/cdisc/sdtm/v3-4/rs"
        },
        {
            "description": "Subject Characteristics",
            "label": "Subject Characteristics",
            "name": "SC",
            "ordinal": "45",
            "structure": "One record per characteristic per visit per subject.",
            "uri": "http://id.d4k.dk/dataset/cdisc/sdtm/v3-4/sc"
        },
        {
            "description": "Subject Status",
            "label": "Subject Status",
            "name": "SS",
            "ordinal": "49",
            "structure": "One record per status per visit per subject",
            "uri": "http://id.d4k.dk/dataset/cdisc/sdtm/v3-4/ss"
        },
        {
            "description": "Tumor/Lesion Results",
            "label": "Tumor/Lesion Results",
            "name": "TR",
            "ordinal": "58",
            "structure": "One record per tumor measurement/assessment per visit per subject per assessor",
            "uri": "http://id.d4k.dk/dataset/cdisc/sdtm/v3-4/tr"
        },
        {
            "description": "Tumor/Lesion Identification",
            "label": "Tumor/Lesion Identification",
            "name": "TU",
            "ordinal": "60",
            "structure": "One record per identified tumor per subject per assessor",
            "uri": "http://id.d4k.dk/dataset/cdisc/sdtm/v3-4/tu"
        },
        {
            "description": "Urinary System Findings",
            "label": "Urinary System Findings",
            "name": "UR",
            "ordinal": "62",
            "structure": "One record per finding per location per per visit per subject",
            "uri": "http://id.d4k.dk/dataset/cdisc/sdtm/v3-4/ur"
        },
        {
            "description": "Vital Signs",
            "label": "Vital Signs",
            "name": "VS",
            "ordinal": "63",
            "structure": "One record per vital sign measurement per time point per visit per subject",
            "uri": "http://id.d4k.dk/dataset/cdisc/sdtm/v3-4/vs"
        },
        {
            "description": "Findings About Events or Interventions",
            "label": "Findings About Events or Interventions",
            "name": "FA",
            "ordinal": "18",
            "structure": "One record per finding, per object, per time point, per visit per subject",
            "uri": "http://id.d4k.dk/dataset/cdisc/sdtm/v3-4/fa"
        },
        {
            "description": "Skin Response",
            "label": "Skin Response",
            "name": "SR",
            "ordinal": "48",
            "structure": "One record per finding, per object, per time point, per visit per subject",
            "uri": "http://id.d4k.dk/dataset/cdisc/sdtm/v3-4/sr"
        },
        {
            "description": "Comments",
            "label": "Comments",
            "name": "CO",
            "ordinal": "7",
            "structure": "One record per comment per subject",
            "uri": "http://id.d4k.dk/dataset/cdisc/sdtm/v3-4/co"
        },
        {
            "description": "Demographics",
            "label": "Demographics",
            "name": "DM",
            "ordinal": "12",
            "structure": "One record per subject",
            "uri": "http://id.d4k.dk/dataset/cdisc/sdtm/v3-4/dm"
        },
        {
            "description": "Subject Elements",
            "label": "Subject Elements",
            "name": "SE",
            "ordinal": "46",
            "structure": "One record per actual Element per subject",
            "uri": "http://id.d4k.dk/dataset/cdisc/sdtm/v3-4/se"
        },
        {
            "description": "Subject Disease Milestones",
            "label": "Subject Disease Milestones",
            "name": "SM",
            "ordinal": "47",
            "structure": "One record per Disease Milestone per subject",
            "uri": "http://id.d4k.dk/dataset/cdisc/sdtm/v3-4/sm"
        },
        {
            "description": "Subject Visits",
            "label": "Subject Visits",
            "name": "SV",
            "ordinal": "52",
            "structure": "One record per actual or planned visit per subject",
            "uri": "http://id.d4k.dk/dataset/cdisc/sdtm/v3-4/sv"
        },
        {
            "description": "Trial Arms",
            "label": "Trial Arms",
            "name": "TA",
            "ordinal": "53",
            "structure": "One record per planned Element per Arm",
            "uri": "http://id.d4k.dk/dataset/cdisc/sdtm/v3-4/ta"
        },
        {
            "description": "Trial Disease Assessments",
            "label": "Trial Disease Assessments",
            "name": "TD",
            "ordinal": "54",
            "structure": "One record per planned constant assessment period",
            "uri": "http://id.d4k.dk/dataset/cdisc/sdtm/v3-4/td"
        },
        {
            "description": "Trial Elements",
            "label": "Trial Elements",
            "name": "TE",
            "ordinal": "55",
            "structure": "One record per planned Element",
            "uri": "http://id.d4k.dk/dataset/cdisc/sdtm/v3-4/te"
        },
        {
            "description": "Trial Inclusion/Exclusion Criteria",
            "label": "Trial Inclusion/Exclusion Criteria",
            "name": "TI",
            "ordinal": "56",
            "structure": "One record per I/E criterion",
            "uri": "http://id.d4k.dk/dataset/cdisc/sdtm/v3-4/ti"
        },
        {
            "description": "Trial Disease Milestones",
            "label": "Trial Disease Milestones",
            "name": "TM",
            "ordinal": "57",
            "structure": "One record per Disease Milestone type",
            "uri": "http://id.d4k.dk/dataset/cdisc/sdtm/v3-4/tm"
        },
        {
            "description": "Trial Summary",
            "label": "Trial Summary",
            "name": "TS",
            "ordinal": "59",
            "structure": "One record per trial summary parameter value",
            "uri": "http://id.d4k.dk/dataset/cdisc/sdtm/v3-4/ts"
        },
        {
            "description": "Trial Visits",
            "label": "Trial Visits",
            "name": "TV",
            "ordinal": "61",
            "structure": "One record per planned Visit per Arm",
            "uri": "http://id.d4k.dk/dataset/cdisc/sdtm/v3-4/tv"
        },
        {
            "description": "Non-host Organism Identifiers",
            "label": "Non-host Organism Identifiers",
            "name": "OI",
            "ordinal": "33",
            "structure": "One record per taxon per non-host organism",
            "uri": "http://id.d4k.dk/dataset/cdisc/sdtm/v3-4/oi"
        },
        {
            "description": "Related Records",
            "label": "Related Records",
            "name": "RELREC",
            "ordinal": "40",
            "structure": "One record per related record, group of records or dataset",
            "uri": "http://id.d4k.dk/dataset/cdisc/sdtm/v3-4/relrec"
        },
        {
            "description": "Related Specimens",
            "label": "Related Specimens",
            "name": "RELSPEC",
            "ordinal": "41",
            "structure": "One record per specimen identifier per subject",
            "uri": "http://id.d4k.dk/dataset/cdisc/sdtm/v3-4/relspec"
        },
        {
            "description": "Related Subjects",
            "label": "Related Subjects",
            "name": "RELSUB",
            "ordinal": "42",
            "structure": "One record per relationship per related subject per subject",
            "uri": "http://id.d4k.dk/dataset/cdisc/sdtm/v3-4/relsub"
        },
        {
            "description": "Supplemental Qualifiers for [domain name]",
            "label": "Supplemental Qualifiers for [domain name]",
            "name": "SUPPQUAL",
            "ordinal": "51",
            "structure": "One record per supplemental qualifier per related parent domain record(s)",
            "uri": "http://id.d4k.dk/dataset/cdisc/sdtm/v3-4/suppqual"
        }
    ],
    "SDTM_IG": [
        {
            "label": "2021-11-29",
            "uri": "http://id.d4k.dk/dataset/cdisc/sdtm/v3-4/"
        }
    ],
    "SDTM_VARIABLE": [
        {
            "core": "Req",
            "ct": "",
            "described_value_domain": "",
            "description": "Unique identifier for a study.",
            "label": "Study Identifier",
            "name": "STUDYID",
            "ordinal": "1",
            "role": "Identifier",
            "simple_data_type": "Char",
            "uri": "http://id.d4k.dk/dataset/cdisc/sdtm/v3-4/ag/studyid"
        },
        {
            "core": "Req",
            "ct": "",
            "described_value_domain": "",
            "description": "Two-character abbreviation for the domain.",
            "label": "Domain Abbreviation",
            "name": "DOMAIN",
            "ordinal": "2",
            "role": "Identifier",
            "simple_data_type": "Char",
            "uri": "http://id.d4k.dk/dataset/cdisc/sdtm/v3-4/ag/domain"
        },
        {
            "core": "Req",
            "ct": "",
            "described_value_domain": "",
            "description": "Identifier used to uniquely identify a subject across all studies for all applications or submissions involving the product.",
            "label": "Unique Subject Identifier",
            "name": "USUBJID",
            "ordinal": "3",
            "role": "Identifier",
            "simple_data_type": "Char",
            "uri": "http://id.d4k.dk/dataset/cdisc/sdtm/v3-4/ag/usubjid"
        },
        {
            "core": "Req",
            "ct": "",
            "described_value_domain": "",
            "description": "Sequence number given to ensure uniqueness of subject records within a domain. May be any valid number.",
            "label": "Sequence Number",
            "name": "AGSEQ",
            "ordinal": "4",
            "role": "Identifier",
            "simple_data_type": "Num",
            "uri": "http://id.d4k.dk/dataset/cdisc/sdtm/v3-4/ag/agseq"
        },
        {
            "core": "Perm",
            "ct": "",
            "described_value_domain": "",
            "description": "Used to tie together a block of related records in a single domain for a subject.",
            "label": "Group ID",
            "name": "AGGRPID",
            "ordinal": "5",
            "role": "Identifier",
            "simple_data_type": "Char",
            "uri": "http://id.d4k.dk/dataset/cdisc/sdtm/v3-4/ag/aggrpid"
        },
        {
            "core": "Perm",
            "ct": "",
            "described_value_domain": "",
            "description": "Sponsor-defined reference number. May be preprinted on the CRF as an explicit line identifier or defined in the sponsor's operational database. Example: Line number from the procedure or test page.",
            "label": "Sponsor-Defined Identifier",
            "name": "AGSPID",
            "ordinal": "6",
            "role": "Identifier",
            "simple_data_type": "Char",
            "uri": "http://id.d4k.dk/dataset/cdisc/sdtm/v3-4/ag/agspid"
        },
        {
            "core": "Perm",
            "ct": "",
            "described_value_domain": "",
            "description": "Identifier used to link related records across domains.This may be a one-to-one or a one-to-many relationship.",
            "label": "Link ID",
            "name": "AGLNKID",
            "ordinal": "7",
            "role": "Identifier",
            "simple_data_type": "Char",
            "uri": "http://id.d4k.dk/dataset/cdisc/sdtm/v3-4/ag/aglnkid"
        },
        {
            "core": "Perm",
            "ct": "",
            "described_value_domain": "",
            "description": "Identifier used to link related records across domains.This will usually be a many-to-one relationship.",
            "label": "Link Group ID",
            "name": "AGLNKGRP",
            "ordinal": "8",
            "role": "Identifier",
            "simple_data_type": "Char",
            "uri": "http://id.d4k.dk/dataset/cdisc/sdtm/v3-4/ag/aglnkgrp"
        },
        {
            "core": "Req",
            "ct": "",
            "described_value_domain": "",
            "description": "Verbatim medication name that is either preprinted or collected on a CRF.",
            "label": "Reported Agent Name",
            "name": "AGTRT",
            "ordinal": "9",
            "role": "Topic",
            "simple_data_type": "Char",
            "uri": "http://id.d4k.dk/dataset/cdisc/sdtm/v3-4/ag/agtrt"
        },
        {
            "core": "Perm",
            "ct": "",
            "described_value_domain": "",
            "description": "If AGTRT is modified to facilitate coding, then AGMODIFY will contain the modified text.",
            "label": "Modified Reported Name",
            "name": "AGMODIFY",
            "ordinal": "10",
            "role": "Synonym Qualifier",
            "simple_data_type": "Char",
            "uri": "http://id.d4k.dk/dataset/cdisc/sdtm/v3-4/ag/agmodify"
        },
        {
            "core": "Perm",
            "ct": "",
            "described_value_domain": "",
            "description": "Standardized or dictionary-derived text description of AGTRT or AGMODIFY. Equivalent to the generic medication name in WHO Drug. The sponsor is expected to provide the dictionary name and version used to map the terms utilizing the external codelist element in the Define-XML document. If an intervention term does not have a decode value in the dictionary, then AGDECOD will be left blank.",
            "label": "Standardized Agent Name",
            "name": "AGDECOD",
            "ordinal": "11",
            "role": "Synonym Qualifier",
            "simple_data_type": "Char",
            "uri": "http://id.d4k.dk/dataset/cdisc/sdtm/v3-4/ag/agdecod"
        },
        {
            "core": "Perm",
            "ct": "",
            "described_value_domain": "",
            "description": "Used to define a category of agent. Examples: \"CHALLENGE AGENT\", \"PET TRACER\".",
            "label": "Category for Agent",
            "name": "AGCAT",
            "ordinal": "12",
            "role": "Grouping Qualifier",
            "simple_data_type": "Char",
            "uri": "http://id.d4k.dk/dataset/cdisc/sdtm/v3-4/ag/agcat"
        },
        {
            "core": "Perm",
            "ct": "",
            "described_value_domain": "",
            "description": "Further categorization of agent.",
            "label": "Subcategory for Agent",
            "name": "AGSCAT",
            "ordinal": "13",
            "role": "Grouping Qualifier",
            "simple_data_type": "Char",
            "uri": "http://id.d4k.dk/dataset/cdisc/sdtm/v3-4/ag/agscat"
        },
        {
            "core": "Perm",
            "ct": "C66742",
            "described_value_domain": "",
            "description": "Used to indicate whether (\"Y\"/null) information about the use of a specific agent was solicited on the CRF.",
            "label": "AG Pre-Specified",
            "name": "AGPRESP",
            "ordinal": "14",
            "role": "Variable Qualifier",
            "simple_data_type": "Char",
            "uri": "http://id.d4k.dk/dataset/cdisc/sdtm/v3-4/ag/agpresp"
        },
        {
            "core": "Perm",
            "ct": "C66742",
            "described_value_domain": "",
            "description": "When the use of specific agent is solicited, AGOCCUR is used to indicate whether (\"Y\"/\"N\") use of the agent occurred. Values are null for agents not specifically solicited.",
            "label": "AG Occurrence",
            "name": "AGOCCUR",
            "ordinal": "15",
            "role": "Record Qualifier",
            "simple_data_type": "Char",
            "uri": "http://id.d4k.dk/dataset/cdisc/sdtm/v3-4/ag/agoccur"
        },
        {
            "core": "Perm",
            "ct": "C66789",
            "described_value_domain": "",
            "description": "Used to indicate that a question about a prespecified agent was not answered. Should be null or have a value of \"NOT DONE\".",
            "label": "Completion Status",
            "name": "AGSTAT",
            "ordinal": "16",
            "role": "Record Qualifier",
            "simple_data_type": "Char",
            "uri": "http://id.d4k.dk/dataset/cdisc/sdtm/v3-4/ag/agstat"
        },
        {
            "core": "Perm",
            "ct": "",
            "described_value_domain": "",
            "description": "Describes the reason a response to a question about the occurrence of a procedure agent was not collected. Used in conjunction with AGSTAT when value is \"NOT DONE\".",
            "label": "Reason Procedure Agent Not Collected",
            "name": "AGREASND",
            "ordinal": "17",
            "role": "Record Qualifier",
            "simple_data_type": "Char",
            "uri": "http://id.d4k.dk/dataset/cdisc/sdtm/v3-4/ag/agreasnd"
        },
        {
            "core": "Perm",
            "ct": "",
            "described_value_domain": "",
            "description": "Drug class. May be obtained from coding. When coding to a single class, populate with class value. If using a dictionary and coding to multiple classes, follow guidance in Section 4.2.8.3, Multiple Values for a Non-result Qualifier Variable, or omit AGCLAS.",
            "label": "Agent Class",
            "name": "AGCLAS",
            "ordinal": "18",
            "role": "Variable Qualifier",
            "simple_data_type": "Char",
            "uri": "http://id.d4k.dk/dataset/cdisc/sdtm/v3-4/ag/agclas"
        },
        {
            "core": "Perm",
            "ct": "",
            "described_value_domain": "",
            "description": "Class code corresponding to AGCLAS. Drug class. May be obtained from coding. When coding to a single class, populate with class code. If using a dictionary and coding to multiple classes, follow guidance in Section 4.2.8.3, Multiple Values for a Non-result Qualifier Variable, or omit AGCLASCD.",
            "label": "Agent Class Code",
            "name": "AGCLASCD",
            "ordinal": "19",
            "role": "Variable Qualifier",
            "simple_data_type": "Char",
            "uri": "http://id.d4k.dk/dataset/cdisc/sdtm/v3-4/ag/agclascd"
        },
        {
            "core": "Perm",
            "ct": "",
            "described_value_domain": "",
            "description": "Amount of AGTRT taken.",
            "label": "Dose per Administration",
            "name": "AGDOSE",
            "ordinal": "20",
            "role": "Record Qualifier",
            "simple_data_type": "Num",
            "uri": "http://id.d4k.dk/dataset/cdisc/sdtm/v3-4/ag/agdose"
        },
        {
            "core": "Perm",
            "ct": "",
            "described_value_domain": "",
            "description": "Dosing amounts or a range of dosing information collected in text form. Units may be stored in AGDOSU. Examples: \"200-400\", \"15-20\".",
            "label": "Dose Description",
            "name": "AGDOSTXT",
            "ordinal": "21",
            "role": "Record Qualifier",
            "simple_data_type": "Char",
            "uri": "http://id.d4k.dk/dataset/cdisc/sdtm/v3-4/ag/agdostxt"
        },
        {
            "core": "Perm",
            "ct": "C71620",
            "described_value_domain": "",
            "description": "Units for AGDOSE and AGDOSTXT. Examples: \"ng\", \"mg\", \"mg/kg\".",
            "label": "Dose Units",
            "name": "AGDOSU",
            "ordinal": "22",
            "role": "Variable Qualifier",
            "simple_data_type": "Char",
            "uri": "http://id.d4k.dk/dataset/cdisc/sdtm/v3-4/ag/agdosu"
        },
        {
            "core": "Perm",
            "ct": "C66726",
            "described_value_domain": "",
            "description": "Dose form for AGTRT. Examples: \"TABLET\", \"AEROSOL\".",
            "label": "Dose Form",
            "name": "AGDOSFRM",
            "ordinal": "23",
            "role": "Variable Qualifier",
            "simple_data_type": "Char",
            "uri": "http://id.d4k.dk/dataset/cdisc/sdtm/v3-4/ag/agdosfrm"
        },
        {
            "core": "Perm",
            "ct": "C71113",
            "described_value_domain": "",
            "description": "Usually expressed as the number of repeated administrations of AGDOSE within a specific time period. Example: \"ONCE\".",
            "label": "Dosing Frequency per Interval",
            "name": "AGDOSFRQ",
            "ordinal": "24",
            "role": "Record Qualifier",
            "simple_data_type": "Char",
            "uri": "http://id.d4k.dk/dataset/cdisc/sdtm/v3-4/ag/agdosfrq"
        },
        {
            "core": "Perm",
            "ct": "C66729",
            "described_value_domain": "",
            "description": "Route of administration for AGTRT. Example: \"ORAL\".",
            "label": "Route of Administration",
            "name": "AGROUTE",
            "ordinal": "25",
            "role": "Variable Qualifier",
            "simple_data_type": "Char",
            "uri": "http://id.d4k.dk/dataset/cdisc/sdtm/v3-4/ag/agroute"
        },
        {
            "core": "Exp",
            "ct": "",
            "described_value_domain": "",
            "description": "1. Clinical encounter number. \\n 2. Numeric version of VISIT, used for sorting.",
            "label": "Visit Number",
            "name": "VISITNUM",
            "ordinal": "26",
            "role": "Timing",
            "simple_data_type": "Num",
            "uri": "http://id.d4k.dk/dataset/cdisc/sdtm/v3-4/ag/visitnum"
        },
        {
            "core": "Perm",
            "ct": "",
            "described_value_domain": "",
            "description": "1. Protocol-defined description of clinical encounter. \\n 2. May be used in addition to VISITNUM and/or VISITDY.",
            "label": "Visit Name",
            "name": "VISIT",
            "ordinal": "27",
            "role": "Timing",
            "simple_data_type": "Char",
            "uri": "http://id.d4k.dk/dataset/cdisc/sdtm/v3-4/ag/visit"
        },
        {
            "core": "Perm",
            "ct": "",
            "described_value_domain": "",
            "description": "Planned study day of the visit based upon RFSTDTC in Demographics.",
            "label": "Planned Study Day of Visit",
            "name": "VISITDY",
            "ordinal": "28",
            "role": "Timing",
            "simple_data_type": "Num",
            "uri": "http://id.d4k.dk/dataset/cdisc/sdtm/v3-4/ag/visitdy"
        },
        {
            "core": "Perm",
            "ct": "",
            "described_value_domain": "",
            "description": "Number that gives the planned order of the element within the arm for the element in which the agent administration started.",
            "label": "Planned Order of Element within Arm",
            "name": "TAETORD",
            "ordinal": "29",
            "role": "Timing",
            "simple_data_type": "Num",
            "uri": "http://id.d4k.dk/dataset/cdisc/sdtm/v3-4/ag/taetord"
        },
        {
            "core": "Perm",
            "ct": "C99079",
            "described_value_domain": "",
            "description": "Epoch associated with the start date/time of the agent administration started.",
            "label": "Epoch",
            "name": "EPOCH",
            "ordinal": "30",
            "role": "Timing",
            "simple_data_type": "Char",
            "uri": "http://id.d4k.dk/dataset/cdisc/sdtm/v3-4/ag/epoch"
        },
        {
            "core": "Perm",
            "ct": "",
            "described_value_domain": "ISO 8601 datetime or interval",
            "description": "The date/time when administration of the treatment indicated by AGTRT and the dosing variables began.",
            "label": "Start Date/Time of Agent",
            "name": "AGSTDTC",
            "ordinal": "31",
            "role": "Timing",
            "simple_data_type": "Char",
            "uri": "http://id.d4k.dk/dataset/cdisc/sdtm/v3-4/ag/agstdtc"
        },
        {
            "core": "Perm",
            "ct": "",
            "described_value_domain": "ISO 8601 datetime or interval",
            "description": "The date/time when administration of the treatment indicated by AGTRT and the dosing variables ended.",
            "label": "End Date/Time of Agent",
            "name": "AGENDTC",
            "ordinal": "32",
            "role": "Timing",
            "simple_data_type": "Char",
            "uri": "http://id.d4k.dk/dataset/cdisc/sdtm/v3-4/ag/agendtc"
        },
        {
            "core": "Perm",
            "ct": "",
            "described_value_domain": "",
            "description": "Study day of start of agent relative to the sponsor-defined RFSTDTC.",
            "label": "Study Day of Start of Agent",
            "name": "AGSTDY",
            "ordinal": "33",
            "role": "Timing",
            "simple_data_type": "Num",
            "uri": "http://id.d4k.dk/dataset/cdisc/sdtm/v3-4/ag/agstdy"
        },
        {
            "core": "Perm",
            "ct": "",
            "described_value_domain": "",
            "description": "Study day of end of agent relative to the sponsor-defined RFSTDTC.",
            "label": "Study Day of End of Agent",
            "name": "AGENDY",
            "ordinal": "34",
            "role": "Timing",
            "simple_data_type": "Num",
            "uri": "http://id.d4k.dk/dataset/cdisc/sdtm/v3-4/ag/agendy"
        },
        {
            "core": "Perm",
            "ct": "",
            "described_value_domain": "ISO 8601 duration",
            "description": "Collected duration for an agent episode. Used only if collected on the CRF and not derived from start and end date/times.",
            "label": "Duration of Agent",
            "name": "AGDUR",
            "ordinal": "35",
            "role": "Timing",
            "simple_data_type": "Char",
            "uri": "http://id.d4k.dk/dataset/cdisc/sdtm/v3-4/ag/agdur"
        },
        {
            "core": "Perm",
            "ct": "C66728",
            "described_value_domain": "",
            "description": "Describes the start of the agent relative to sponsor-defined reference period. The sponsor-defined reference period is a continuous period of time defined by a discrete starting point and a discrete ending point (represented by RFSTDTC and RFENDTC in Demographics). If information such as \"PRIOR\", \"ONGOING\", or \"CONTINUING\" was collected, this information may be translated into AGSTRF. \\n Not all values of the codelist are allowable for this variable. See Section 4.4.7, Use of Relative Timing Variables.",
            "label": "Start Relative to Reference Period",
            "name": "AGSTRF",
            "ordinal": "36",
            "role": "Timing",
            "simple_data_type": "Char",
            "uri": "http://id.d4k.dk/dataset/cdisc/sdtm/v3-4/ag/agstrf"
        },
        {
            "core": "Perm",
            "ct": "C66728",
            "described_value_domain": "",
            "description": "Describes the end of the agent relative to the sponsor-defined reference period. The sponsor-defined reference period is a continuous period of time defined by a discrete starting point and a discrete ending point (represented by RFSTDTC and RFENDTC in Demographics). If information such as \"PRIOR\", \"ONGOING\", or \"CONTINUING\" was collected, this information may be translated into AGENRF. \\n Not all values of the codelist are allowable for this variable. See Section 4.4.7, Use of Relative Timing Variables.",
            "label": "End Relative to Reference Period",
            "name": "AGENRF",
            "ordinal": "37",
            "role": "Timing",
            "simple_data_type": "Char",
            "uri": "http://id.d4k.dk/dataset/cdisc/sdtm/v3-4/ag/agenrf"
        },
        {
            "core": "Perm",
            "ct": "C66728",
            "described_value_domain": "",
            "description": "Identifies the start of the agent as being before or after the sponsor-defined reference time point defined by variable AGSTTPT. \\n Not all values of the codelist are allowable for this variable. See Section 4.4.7, Use of Relative Timing Variables.",
            "label": "Start Relative to Reference Time Point",
            "name": "AGSTRTPT",
            "ordinal": "38",
            "role": "Timing",
            "simple_data_type": "Char",
            "uri": "http://id.d4k.dk/dataset/cdisc/sdtm/v3-4/ag/agstrtpt"
        },
        {
            "core": "Perm",
            "ct": "",
            "described_value_domain": "",
            "description": "Description or date/time in ISO 8601 character format of the reference point referred to by AGSTRTPT. Examples: \"2003-12-15\", \"VISIT 1\".",
            "label": "Start Reference Time Point",
            "name": "AGSTTPT",
            "ordinal": "39",
            "role": "Timing",
            "simple_data_type": "Char",
            "uri": "http://id.d4k.dk/dataset/cdisc/sdtm/v3-4/ag/agsttpt"
        },
        {
            "core": "Perm",
            "ct": "C66728",
            "described_value_domain": "",
            "description": "Identifies the end of the agent as being before or after the reference time point defined by variable AGENTPT. Identifies the end of the agent as being before or after the sponsor-defined reference time point defined by variable AGENTPT. \\n Not all values of the codelist are allowable for this variable. See Section 4.4.7, Use of Relative Timing Variables.",
            "label": "End Relative to Reference Time Point",
            "name": "AGENRTPT",
            "ordinal": "40",
            "role": "Timing",
            "simple_data_type": "Char",
            "uri": "http://id.d4k.dk/dataset/cdisc/sdtm/v3-4/ag/agenrtpt"
        },
        {
            "core": "Perm",
            "ct": "",
            "described_value_domain": "",
            "description": "Description or date/time in ISO 8601 character format of the reference point referred to by AGENRTPT. Examples: \"2003-12-25\", \"VISIT 2\".",
            "label": "End Reference Time Point",
            "name": "AGENTPT",
            "ordinal": "41",
            "role": "Timing",
            "simple_data_type": "Char",
            "uri": "http://id.d4k.dk/dataset/cdisc/sdtm/v3-4/ag/agentpt"
        },
        {
            "core": "Req",
            "ct": "",
            "described_value_domain": "",
            "description": "Unique identifier for a study.",
            "label": "Study Identifier",
            "name": "STUDYID",
            "ordinal": "1",
            "role": "Identifier",
            "simple_data_type": "Char",
            "uri": "http://id.d4k.dk/dataset/cdisc/sdtm/v3-4/cm/studyid"
        },
        {
            "core": "Req",
            "ct": "",
            "described_value_domain": "",
            "description": "Two-character abbreviation for the domain.",
            "label": "Domain Abbreviation",
            "name": "DOMAIN",
            "ordinal": "2",
            "role": "Identifier",
            "simple_data_type": "Char",
            "uri": "http://id.d4k.dk/dataset/cdisc/sdtm/v3-4/cm/domain"
        },
        {
            "core": "Req",
            "ct": "",
            "described_value_domain": "",
            "description": "Identifier used to uniquely identify a subject across all studies for all applications or submissions involving the product.",
            "label": "Unique Subject Identifier",
            "name": "USUBJID",
            "ordinal": "3",
            "role": "Identifier",
            "simple_data_type": "Char",
            "uri": "http://id.d4k.dk/dataset/cdisc/sdtm/v3-4/cm/usubjid"
        },
        {
            "core": "Req",
            "ct": "",
            "described_value_domain": "",
            "description": "Sequence number to ensure uniqueness of subject records within a domain. May be any valid number.",
            "label": "Sequence Number",
            "name": "CMSEQ",
            "ordinal": "4",
            "role": "Identifier",
            "simple_data_type": "Num",
            "uri": "http://id.d4k.dk/dataset/cdisc/sdtm/v3-4/cm/cmseq"
        },
        {
            "core": "Perm",
            "ct": "",
            "described_value_domain": "",
            "description": "Used to tie together a block of related records in a single domain for a subject.",
            "label": "Group ID",
            "name": "CMGRPID",
            "ordinal": "5",
            "role": "Identifier",
            "simple_data_type": "Char",
            "uri": "http://id.d4k.dk/dataset/cdisc/sdtm/v3-4/cm/cmgrpid"
        },
        {
            "core": "Perm",
            "ct": "",
            "described_value_domain": "",
            "description": "Sponsor-defined reference number. Example: a number preprinted on the CRF as an explicit line identifier or record identifier defined in the sponsor's operational database. Example: line number on a concomitant medication page.",
            "label": "Sponsor-Defined Identifier",
            "name": "CMSPID",
            "ordinal": "6",
            "role": "Identifier",
            "simple_data_type": "Char",
            "uri": "http://id.d4k.dk/dataset/cdisc/sdtm/v3-4/cm/cmspid"
        },
        {
            "core": "Req",
            "ct": "",
            "described_value_domain": "",
            "description": "Verbatim medication name that is either preprinted or collected on a CRF.",
            "label": "Reported Name of Drug, Med, or Therapy",
            "name": "CMTRT",
            "ordinal": "7",
            "role": "Topic",
            "simple_data_type": "Char",
            "uri": "http://id.d4k.dk/dataset/cdisc/sdtm/v3-4/cm/cmtrt"
        },
        {
            "core": "Perm",
            "ct": "",
            "described_value_domain": "",
            "description": "If CMTRT is modified to facilitate coding, then CMMODIFY will contain the modified text.",
            "label": "Modified Reported Name",
            "name": "CMMODIFY",
            "ordinal": "8",
            "role": "Synonym Qualifier",
            "simple_data_type": "Char",
            "uri": "http://id.d4k.dk/dataset/cdisc/sdtm/v3-4/cm/cmmodify"
        },
        {
            "core": "Perm",
            "ct": "",
            "described_value_domain": "",
            "description": "Standardized or dictionary-derived text description of CMTRT or CMMODIFY. Equivalent to the generic drug name in WHO Drug. The sponsor is expected to provide the dictionary name and version used to map the terms utilizing the external codelist element in the Define-XML document. If an intervention term does not have a decode value in the dictionary, then CMDECOD will be left blank.",
            "label": "Standardized Medication Name",
            "name": "CMDECOD",
            "ordinal": "9",
            "role": "Synonym Qualifier",
            "simple_data_type": "Char",
            "uri": "http://id.d4k.dk/dataset/cdisc/sdtm/v3-4/cm/cmdecod"
        },
        {
            "core": "Perm",
            "ct": "",
            "described_value_domain": "",
            "description": "Used to define a category of medications/treatment. Examples: \"PRIOR\", \"CONCOMITANT\", \"ANTI-CANCER MEDICATION\", \"GENERAL CONMED\".",
            "label": "Category for Medication",
            "name": "CMCAT",
            "ordinal": "10",
            "role": "Grouping Qualifier",
            "simple_data_type": "Char",
            "uri": "http://id.d4k.dk/dataset/cdisc/sdtm/v3-4/cm/cmcat"
        },
        {
            "core": "Perm",
            "ct": "",
            "described_value_domain": "",
            "description": "A further categorization of medications/treatment. Examples: \"CHEMOTHERAPY\", \"HORMONAL THERAPY\", \"ALTERNATIVE THERAPY\".",
            "label": "Subcategory for Medication",
            "name": "CMSCAT",
            "ordinal": "11",
            "role": "Grouping Qualifier",
            "simple_data_type": "Char",
            "uri": "http://id.d4k.dk/dataset/cdisc/sdtm/v3-4/cm/cmscat"
        },
        {
            "core": "Perm",
            "ct": "C66742",
            "described_value_domain": "",
            "description": "Used to indicate whether (\"Y\"/null) information about the use of a specific medication was solicited on the CRF.",
            "label": "CM Pre-specified",
            "name": "CMPRESP",
            "ordinal": "12",
            "role": "Variable Qualifier",
            "simple_data_type": "Char",
            "uri": "http://id.d4k.dk/dataset/cdisc/sdtm/v3-4/cm/cmpresp"
        },
        {
            "core": "Perm",
            "ct": "C66742",
            "described_value_domain": "",
            "description": "When the use of a specific medication is solicited. CMOCCUR is used to indicate whether (\"Y\"/\"N\") use of the medication occurred. Values are null for medications not specifically solicited.",
            "label": "CM Occurrence",
            "name": "CMOCCUR",
            "ordinal": "13",
            "role": "Record Qualifier",
            "simple_data_type": "Char",
            "uri": "http://id.d4k.dk/dataset/cdisc/sdtm/v3-4/cm/cmoccur"
        },
        {
            "core": "Perm",
            "ct": "C66789",
            "described_value_domain": "",
            "description": "Used to indicate that a question about the occurrence of a prespecified intervention was not answered. Should be null or have a value of \"NOT DONE\".",
            "label": "Completion Status",
            "name": "CMSTAT",
            "ordinal": "14",
            "role": "Record Qualifier",
            "simple_data_type": "Char",
            "uri": "http://id.d4k.dk/dataset/cdisc/sdtm/v3-4/cm/cmstat"
        },
        {
            "core": "Perm",
            "ct": "",
            "described_value_domain": "",
            "description": "Reason not done. Used in conjunction with CMSTAT when value is \"NOT DONE\".",
            "label": "Reason Medication Not Collected",
            "name": "CMREASND",
            "ordinal": "15",
            "role": "Record Qualifier",
            "simple_data_type": "Char",
            "uri": "http://id.d4k.dk/dataset/cdisc/sdtm/v3-4/cm/cmreasnd"
        },
        {
            "core": "Perm",
            "ct": "",
            "described_value_domain": "",
            "description": "Denotes why a medication was taken or administered. Examples: \"NAUSEA\", \"HYPERTENSION\".",
            "label": "Indication",
            "name": "CMINDC",
            "ordinal": "16",
            "role": "Record Qualifier",
            "simple_data_type": "Char",
            "uri": "http://id.d4k.dk/dataset/cdisc/sdtm/v3-4/cm/cmindc"
        },
        {
            "core": "Perm",
            "ct": "",
            "described_value_domain": "",
            "description": "Drug class. May be obtained from coding. When coding to a single class, populate with class value. If using a dictionary and coding to multiple classes, then follow Section 4.2.8.3, Multiple Values for a Non-result Qualifier Variable, or omit CMCLAS.",
            "label": "Medication Class",
            "name": "CMCLAS",
            "ordinal": "17",
            "role": "Variable Qualifier",
            "simple_data_type": "Char",
            "uri": "http://id.d4k.dk/dataset/cdisc/sdtm/v3-4/cm/cmclas"
        },
        {
            "core": "Perm",
            "ct": "",
            "described_value_domain": "",
            "description": "Class code corresponding to CMCLAS. Drug class. May be obtained from coding. When coding to a single class, populate with class code. If using a dictionary and coding to multiple classes, then follow Section 4.2.8.3, Multiple Values for a Non-result Qualifier Variable, or omit CMCLASCD.",
            "label": "Medication Class Code",
            "name": "CMCLASCD",
            "ordinal": "18",
            "role": "Variable Qualifier",
            "simple_data_type": "Char",
            "uri": "http://id.d4k.dk/dataset/cdisc/sdtm/v3-4/cm/cmclascd"
        },
        {
            "core": "Perm",
            "ct": "",
            "described_value_domain": "",
            "description": "Amount of CMTRT given. Not populated when CMDOSTXT is populated.",
            "label": "Dose per Administration",
            "name": "CMDOSE",
            "ordinal": "19",
            "role": "Record Qualifier",
            "simple_data_type": "Num",
            "uri": "http://id.d4k.dk/dataset/cdisc/sdtm/v3-4/cm/cmdose"
        },
        {
            "core": "Perm",
            "ct": "",
            "described_value_domain": "",
            "description": "Dosing amounts or a range of dosing information collected in text form. Units may be stored in CMDOSU. Examples: \"200-400\", \"15-20\". Not populated when CMDOSE is populated.",
            "label": "Dose Description",
            "name": "CMDOSTXT",
            "ordinal": "20",
            "role": "Record Qualifier",
            "simple_data_type": "Char",
            "uri": "http://id.d4k.dk/dataset/cdisc/sdtm/v3-4/cm/cmdostxt"
        },
        {
            "core": "Perm",
            "ct": "C71620",
            "described_value_domain": "",
            "description": "Units for CMDOSE, CMDOSTOT, or CMDOSTXT. Examples: \"ng\", \"mg\", \"mg/kg\".",
            "label": "Dose Units",
            "name": "CMDOSU",
            "ordinal": "21",
            "role": "Variable Qualifier",
            "simple_data_type": "Char",
            "uri": "http://id.d4k.dk/dataset/cdisc/sdtm/v3-4/cm/cmdosu"
        },
        {
            "core": "Perm",
            "ct": "C66726",
            "described_value_domain": "",
            "description": "Dose form for CMTRT. Examples: \"TABLET\", \"LOTION\".",
            "label": "Dose Form",
            "name": "CMDOSFRM",
            "ordinal": "22",
            "role": "Variable Qualifier",
            "simple_data_type": "Char",
            "uri": "http://id.d4k.dk/dataset/cdisc/sdtm/v3-4/cm/cmdosfrm"
        },
        {
            "core": "Perm",
            "ct": "C71113",
            "described_value_domain": "",
            "description": "Usually expressed as the number of repeated administrations of CMDOSE within a specific time period. Examples: \"BID\" (twice daily), \"Q12H\" (every 12 hours).",
            "label": "Dosing Frequency per Interval",
            "name": "CMDOSFRQ",
            "ordinal": "23",
            "role": "Record Qualifier",
            "simple_data_type": "Char",
            "uri": "http://id.d4k.dk/dataset/cdisc/sdtm/v3-4/cm/cmdosfrq"
        },
        {
            "core": "Perm",
            "ct": "",
            "described_value_domain": "",
            "description": "Total daily dose of CMTRT using the units in CMDOSU. Used when dosing is collected as total daily dose. Total dose over a period other than day could be recorded in a separate supplemental qualifier variable.",
            "label": "Total Daily Dose",
            "name": "CMDOSTOT",
            "ordinal": "24",
            "role": "Record Qualifier",
            "simple_data_type": "Num",
            "uri": "http://id.d4k.dk/dataset/cdisc/sdtm/v3-4/cm/cmdostot"
        },
        {
            "core": "Perm",
            "ct": "",
            "described_value_domain": "",
            "description": "Text description of the (intended) schedule or regimen for the Intervention. Example: \"TWO WEEKS ON, TWO WEEKS OFF\".",
            "label": "Intended Dose Regimen",
            "name": "CMDOSRGM",
            "ordinal": "25",
            "role": "Record Qualifier",
            "simple_data_type": "Char",
            "uri": "http://id.d4k.dk/dataset/cdisc/sdtm/v3-4/cm/cmdosrgm"
        },
        {
            "core": "Perm",
            "ct": "C66729",
            "described_value_domain": "",
            "description": "Route of administration for the intervention. Examples: \"ORAL\", \"INTRAVENOUS\".",
            "label": "Route of Administration",
            "name": "CMROUTE",
            "ordinal": "26",
            "role": "Variable Qualifier",
            "simple_data_type": "Char",
            "uri": "http://id.d4k.dk/dataset/cdisc/sdtm/v3-4/cm/cmroute"
        },
        {
            "core": "Perm",
            "ct": "",
            "described_value_domain": "",
            "description": "Describes reason or explanation of why a dose is adjusted. Examples: \"ADVERSE EVENT\", \"INSUFFICIENT RESPONSE\", \"NON-MEDICAL REASON\".",
            "label": "Reason for Dose Adjustment",
            "name": "CMADJ",
            "ordinal": "27",
            "role": "Record Qualifier",
            "simple_data_type": "Char",
            "uri": "http://id.d4k.dk/dataset/cdisc/sdtm/v3-4/cm/cmadj"
        },
        {
            "core": "Perm",
            "ct": "",
            "described_value_domain": "",
            "description": "When dosing of a treatment is recorded over multiple successive records, this variable is applicable only for the (chronologically) last record for the treatment.",
            "label": "Reason the Intervention Was Discontinued",
            "name": "CMRSDISC",
            "ordinal": "28",
            "role": "Record Qualifier",
            "simple_data_type": "Char",
            "uri": "http://id.d4k.dk/dataset/cdisc/sdtm/v3-4/cm/cmrsdisc"
        },
        {
            "core": "Perm",
            "ct": "",
            "described_value_domain": "",
            "description": "Number that gives the planned order of the element within the arm for the element in which the medication administration started. Null for medications that started before study participation.",
            "label": "Planned Order of Element within Arm",
            "name": "TAETORD",
            "ordinal": "29",
            "role": "Timing",
            "simple_data_type": "Num",
            "uri": "http://id.d4k.dk/dataset/cdisc/sdtm/v3-4/cm/taetord"
        },
        {
            "core": "Perm",
            "ct": "C99079",
            "described_value_domain": "",
            "description": "Epoch associated with the start date/time of the medication administration. Null for medications that started before study participation.",
            "label": "Epoch",
            "name": "EPOCH",
            "ordinal": "30",
            "role": "Timing",
            "simple_data_type": "Char",
            "uri": "http://id.d4k.dk/dataset/cdisc/sdtm/v3-4/cm/epoch"
        },
        {
            "core": "Perm",
            "ct": "",
            "described_value_domain": "ISO 8601 datetime or interval",
            "description": "Start date/time of the medication administration represented in ISO 8601 character format.",
            "label": "Start Date/Time of Medication",
            "name": "CMSTDTC",
            "ordinal": "31",
            "role": "Timing",
            "simple_data_type": "Char",
            "uri": "http://id.d4k.dk/dataset/cdisc/sdtm/v3-4/cm/cmstdtc"
        },
        {
            "core": "Perm",
            "ct": "",
            "described_value_domain": "ISO 8601 datetime or interval",
            "description": "End date/time of the medication administration represented in ISO 8601 character format.",
            "label": "End Date/Time of Medication",
            "name": "CMENDTC",
            "ordinal": "32",
            "role": "Timing",
            "simple_data_type": "Char",
            "uri": "http://id.d4k.dk/dataset/cdisc/sdtm/v3-4/cm/cmendtc"
        },
        {
            "core": "Perm",
            "ct": "",
            "described_value_domain": "",
            "description": "Study day of start of medication relative to the sponsor-defined RFSTDTC.",
            "label": "Study Day of Start of Medication",
            "name": "CMSTDY",
            "ordinal": "33",
            "role": "Timing",
            "simple_data_type": "Num",
            "uri": "http://id.d4k.dk/dataset/cdisc/sdtm/v3-4/cm/cmstdy"
        },
        {
            "core": "Perm",
            "ct": "",
            "described_value_domain": "",
            "description": "Study day of end of medication relative to the sponsor-defined RFSTDTC.",
            "label": "Study Day of End of Medication",
            "name": "CMENDY",
            "ordinal": "34",
            "role": "Timing",
            "simple_data_type": "Num",
            "uri": "http://id.d4k.dk/dataset/cdisc/sdtm/v3-4/cm/cmendy"
        },
        {
            "core": "Perm",
            "ct": "",
            "described_value_domain": "ISO 8601 duration",
            "description": "Collected duration for a treatment episode. Used only if collected on the CRF and not derived from start and end date/times.",
            "label": "Duration",
            "name": "CMDUR",
            "ordinal": "35",
            "role": "Timing",
            "simple_data_type": "Char",
            "uri": "http://id.d4k.dk/dataset/cdisc/sdtm/v3-4/cm/cmdur"
        },
        {
            "core": "Perm",
            "ct": "C66728",
            "described_value_domain": "",
            "description": "Describes the start of the medication relative to sponsor-defined reference period. The sponsor-defined reference period is a continuous period of time defined by a discrete starting point and a discrete ending point (represented by RFSTDTC and RFENDTC in Demographics). If information such as \"PRIOR\" was collected, this information may be translated into CMSTRF. \\n Not all values of the codelist are allowable for this variable. See Section 4.4.7, Use of Relative Timing Variables.",
            "label": "Start Relative to Reference Period",
            "name": "CMSTRF",
            "ordinal": "36",
            "role": "Timing",
            "simple_data_type": "Char",
            "uri": "http://id.d4k.dk/dataset/cdisc/sdtm/v3-4/cm/cmstrf"
        },
        {
            "core": "Perm",
            "ct": "C66728",
            "described_value_domain": "",
            "description": "Describes the end of the medication relative to the sponsor-defined reference period. The sponsor-defined reference period is a continuous period of time defined by a discrete starting point and a discrete ending point (represented by RFSTDTC and RFENDTC in Demographics). If information such as \"PRIOR\", \"ONGOING, or \"CONTINUING\" was collected, this information may be translated into CMENRF. \\n Not all values of the codelist are allowable for this variable. See Section 4.4.7, Use of Relative Timing Variables.",
            "label": "End Relative to Reference Period",
            "name": "CMENRF",
            "ordinal": "37",
            "role": "Timing",
            "simple_data_type": "Char",
            "uri": "http://id.d4k.dk/dataset/cdisc/sdtm/v3-4/cm/cmenrf"
        },
        {
            "core": "Perm",
            "ct": "C66728",
            "described_value_domain": "",
            "description": "Identifies the start of the medication as being before or after the sponsor-defined reference time point defined by variable CMSTTPT. \\n Not all values of the codelist are allowable for this variable. See Section 4.4.7, Use of Relative Timing Variables.",
            "label": "Start Relative to Reference Time Point",
            "name": "CMSTRTPT",
            "ordinal": "38",
            "role": "Timing",
            "simple_data_type": "Char",
            "uri": "http://id.d4k.dk/dataset/cdisc/sdtm/v3-4/cm/cmstrtpt"
        },
        {
            "core": "Perm",
            "ct": "",
            "described_value_domain": "",
            "description": "Description or date/time in ISO 8601 character format of the sponsor-defined reference point referred to by CMSTRTPT. Examples: \"2003-12-15\", \"VISIT 1\".",
            "label": "Start Reference Time Point",
            "name": "CMSTTPT",
            "ordinal": "39",
            "role": "Timing",
            "simple_data_type": "Char",
            "uri": "http://id.d4k.dk/dataset/cdisc/sdtm/v3-4/cm/cmsttpt"
        },
        {
            "core": "Perm",
            "ct": "C66728",
            "described_value_domain": "",
            "description": "Identifies the end of the medication as being before or after the sponsor-defined reference time point defined by variable CMENTPT. \\n Not all values of the codelist are allowable for this variable. See Section 4.4.7, Use of Relative Timing Variables.",
            "label": "End Relative to Reference Time Point",
            "name": "CMENRTPT",
            "ordinal": "40",
            "role": "Timing",
            "simple_data_type": "Char",
            "uri": "http://id.d4k.dk/dataset/cdisc/sdtm/v3-4/cm/cmenrtpt"
        },
        {
            "core": "Perm",
            "ct": "",
            "described_value_domain": "",
            "description": "Description or date/time in ISO 8601 character format of the sponsor-defined reference point referred to by CMENRTPT. Examples: \"2003-12-25\", \"VISIT 2\".",
            "label": "End Reference Time Point",
            "name": "CMENTPT",
            "ordinal": "41",
            "role": "Timing",
            "simple_data_type": "Char",
            "uri": "http://id.d4k.dk/dataset/cdisc/sdtm/v3-4/cm/cmentpt"
        },
        {
            "core": "Req",
            "ct": "",
            "described_value_domain": "",
            "description": "Unique identifier for a study.",
            "label": "Study Identifier",
            "name": "STUDYID",
            "ordinal": "1",
            "role": "Identifier",
            "simple_data_type": "Char",
            "uri": "http://id.d4k.dk/dataset/cdisc/sdtm/v3-4/ec/studyid"
        },
        {
            "core": "Req",
            "ct": "",
            "described_value_domain": "",
            "description": "Two-character abbreviation for the domain.",
            "label": "Domain Abbreviation",
            "name": "DOMAIN",
            "ordinal": "2",
            "role": "Identifier",
            "simple_data_type": "Char",
            "uri": "http://id.d4k.dk/dataset/cdisc/sdtm/v3-4/ec/domain"
        },
        {
            "core": "Req",
            "ct": "",
            "described_value_domain": "",
            "description": "Identifier used to uniquely identify a subject across all studies for all applications or submissions involving the product.",
            "label": "Unique Subject Identifier",
            "name": "USUBJID",
            "ordinal": "3",
            "role": "Identifier",
            "simple_data_type": "Char",
            "uri": "http://id.d4k.dk/dataset/cdisc/sdtm/v3-4/ec/usubjid"
        },
        {
            "core": "Req",
            "ct": "",
            "described_value_domain": "",
            "description": "Sequence number given to ensure uniqueness of subject records within a domain. May be any valid number.",
            "label": "Sequence Number",
            "name": "ECSEQ",
            "ordinal": "4",
            "role": "Identifier",
            "simple_data_type": "Num",
            "uri": "http://id.d4k.dk/dataset/cdisc/sdtm/v3-4/ec/ecseq"
        },
        {
            "core": "Perm",
            "ct": "",
            "described_value_domain": "",
            "description": "Used to tie together a block of related records in a single domain for a subject.",
            "label": "Group ID",
            "name": "ECGRPID",
            "ordinal": "5",
            "role": "Identifier",
            "simple_data_type": "Char",
            "uri": "http://id.d4k.dk/dataset/cdisc/sdtm/v3-4/ec/ecgrpid"
        },
        {
            "core": "Perm",
            "ct": "",
            "described_value_domain": "",
            "description": "Internal or external identifier (e.g., kit number, bottle label, vial identifier).",
            "label": "Reference ID",
            "name": "ECREFID",
            "ordinal": "6",
            "role": "Identifier",
            "simple_data_type": "Char",
            "uri": "http://id.d4k.dk/dataset/cdisc/sdtm/v3-4/ec/ecrefid"
        },
        {
            "core": "Perm",
            "ct": "",
            "described_value_domain": "",
            "description": "Sponsor-defined reference number. May be preprinted on the CRF as an explicit line identifier or defined in the sponsor's operational database. Example: Line number on a CRF page.",
            "label": "Sponsor-Defined Identifier",
            "name": "ECSPID",
            "ordinal": "7",
            "role": "Identifier",
            "simple_data_type": "Char",
            "uri": "http://id.d4k.dk/dataset/cdisc/sdtm/v3-4/ec/ecspid"
        },
        {
            "core": "Perm",
            "ct": "",
            "described_value_domain": "",
            "description": "Identifier used to link related records across domains.",
            "label": "Link ID",
            "name": "ECLNKID",
            "ordinal": "8",
            "role": "Identifier",
            "simple_data_type": "Char",
            "uri": "http://id.d4k.dk/dataset/cdisc/sdtm/v3-4/ec/eclnkid"
        },
        {
            "core": "Perm",
            "ct": "",
            "described_value_domain": "",
            "description": "Identifier used to link related, grouped records across domains.",
            "label": "Link Group ID",
            "name": "ECLNKGRP",
            "ordinal": "9",
            "role": "Identifier",
            "simple_data_type": "Char",
            "uri": "http://id.d4k.dk/dataset/cdisc/sdtm/v3-4/ec/eclnkgrp"
        },
        {
            "core": "Req",
            "ct": "",
            "described_value_domain": "",
            "description": "Name of the intervention treatment known to the subject and/or administrator.",
            "label": "Name of Treatment",
            "name": "ECTRT",
            "ordinal": "10",
            "role": "Topic",
            "simple_data_type": "Char",
            "uri": "http://id.d4k.dk/dataset/cdisc/sdtm/v3-4/ec/ectrt"
        },
        {
            "core": "Perm",
            "ct": "C125923",
            "described_value_domain": "",
            "description": "Mode or condition of the record specifying whether the intervention (activity) is intended to happen or has happened. Values align with BRIDG pillars (e.g., scheduled context, performed context) and HL7 activity moods (e.g., intent, event). Examples: \"SCHEDULED\", \"PERFORMED\".",
            "label": "Mood",
            "name": "ECMOOD",
            "ordinal": "11",
            "role": "Record Qualifier",
            "simple_data_type": "Char",
            "uri": "http://id.d4k.dk/dataset/cdisc/sdtm/v3-4/ec/ecmood"
        },
        {
            "core": "Perm",
            "ct": "",
            "described_value_domain": "",
            "description": "Used to define a category of related ECTRT values.",
            "label": "Category of Treatment",
            "name": "ECCAT",
            "ordinal": "12",
            "role": "Grouping Qualifier",
            "simple_data_type": "Char",
            "uri": "http://id.d4k.dk/dataset/cdisc/sdtm/v3-4/ec/eccat"
        },
        {
            "core": "Perm",
            "ct": "",
            "described_value_domain": "",
            "description": "A further categorization of ECCAT values.",
            "label": "Subcategory of Treatment",
            "name": "ECSCAT",
            "ordinal": "13",
            "role": "Grouping Qualifier",
            "simple_data_type": "Char",
            "uri": "http://id.d4k.dk/dataset/cdisc/sdtm/v3-4/ec/ecscat"
        },
        {
            "core": "Perm",
            "ct": "C66742",
            "described_value_domain": "",
            "description": "Used when a specific intervention is prespecified. Values should be \"Y\" or null.",
            "label": "Pre-Specified",
            "name": "ECPRESP",
            "ordinal": "14",
            "role": "Variable Qualifier",
            "simple_data_type": "Char",
            "uri": "http://id.d4k.dk/dataset/cdisc/sdtm/v3-4/ec/ecpresp"
        },
        {
            "core": "Perm",
            "ct": "C66742",
            "described_value_domain": "",
            "description": "Used to indicate whether a treatment occurred when information about the occurrence is solicited. ECOCCUR = \"N\" when a treatment was not taken, not given, or missed.",
            "label": "Occurrence",
            "name": "ECOCCUR",
            "ordinal": "15",
            "role": "Record Qualifier",
            "simple_data_type": "Char",
            "uri": "http://id.d4k.dk/dataset/cdisc/sdtm/v3-4/ec/ecoccur"
        },
        {
            "core": "Perm",
            "ct": "",
            "described_value_domain": "",
            "description": "The reason for the value in --OCCUR. If --OCCUR = \"N\", this is the reason the exposure did not occur.",
            "label": "Reason for Occur Value",
            "name": "ECREASOC",
            "ordinal": "16",
            "role": "Record Qualifier",
            "simple_data_type": "Char",
            "uri": "http://id.d4k.dk/dataset/cdisc/sdtm/v3-4/ec/ecreasoc"
        },
        {
            "core": "Exp",
            "ct": "",
            "described_value_domain": "",
            "description": "Amount of ECTRT when numeric. Not populated when ECDOSTXT is populated.",
            "label": "Dose",
            "name": "ECDOSE",
            "ordinal": "17",
            "role": "Record Qualifier",
            "simple_data_type": "Num",
            "uri": "http://id.d4k.dk/dataset/cdisc/sdtm/v3-4/ec/ecdose"
        },
        {
            "core": "Perm",
            "ct": "",
            "described_value_domain": "",
            "description": "Amount of ECTRT when non-numeric. Dosing amounts or a range of dosing information collected in text form. Example: \"200-400\". Not populated when ECDOSE is populated.",
            "label": "Dose Description",
            "name": "ECDOSTXT",
            "ordinal": "18",
            "role": "Record Qualifier",
            "simple_data_type": "Char",
            "uri": "http://id.d4k.dk/dataset/cdisc/sdtm/v3-4/ec/ecdostxt"
        },
        {
            "core": "Exp",
            "ct": "C71620",
            "described_value_domain": "",
            "description": "Units for ECDOSE, ECDOSTOT, or ECDOSTXT.",
            "label": "Dose Units",
            "name": "ECDOSU",
            "ordinal": "19",
            "role": "Variable Qualifier",
            "simple_data_type": "Char",
            "uri": "http://id.d4k.dk/dataset/cdisc/sdtm/v3-4/ec/ecdosu"
        },
        {
            "core": "Exp",
            "ct": "C66726",
            "described_value_domain": "",
            "description": "Dose form for ECTRT. Examples: \"TABLET\", \"LOTION\".",
            "label": "Dose Form",
            "name": "ECDOSFRM",
            "ordinal": "20",
            "role": "Variable Qualifier",
            "simple_data_type": "Char",
            "uri": "http://id.d4k.dk/dataset/cdisc/sdtm/v3-4/ec/ecdosfrm"
        },
        {
            "core": "Perm",
            "ct": "C71113",
            "described_value_domain": "",
            "description": "Usually expressed as the number of repeated administrations of ECDOSE within a specific time period. Examples: \"Q2H\", \"QD\", \"BID\".",
            "label": "Dosing Frequency per Interval",
            "name": "ECDOSFRQ",
            "ordinal": "21",
            "role": "Record Qualifier",
            "simple_data_type": "Char",
            "uri": "http://id.d4k.dk/dataset/cdisc/sdtm/v3-4/ec/ecdosfrq"
        },
        {
            "core": "Perm",
            "ct": "",
            "described_value_domain": "",
            "description": "Total daily dose of ECTRT using the units in ECDOSU. Used when dosing is collected as total daily dose.",
            "label": "Total Daily Dose",
            "name": "ECDOSTOT",
            "ordinal": "22",
            "role": "Record Qualifier",
            "simple_data_type": "Num",
            "uri": "http://id.d4k.dk/dataset/cdisc/sdtm/v3-4/ec/ecdostot"
        },
        {
            "core": "Perm",
            "ct": "",
            "described_value_domain": "",
            "description": "Text description of the intended schedule or regimen for the Intervention. Example: \"TWO WEEKS ON\", \"TWO WEEKS OFF\".",
            "label": "Intended Dose Regimen",
            "name": "ECDOSRGM",
            "ordinal": "23",
            "role": "Record Qualifier",
            "simple_data_type": "Char",
            "uri": "http://id.d4k.dk/dataset/cdisc/sdtm/v3-4/ec/ecdosrgm"
        },
        {
            "core": "Perm",
            "ct": "C66729",
            "described_value_domain": "",
            "description": "Route of administration for the intervention. Examples: \"ORAL\", \"INTRAVENOUS\".",
            "label": "Route of Administration",
            "name": "ECROUTE",
            "ordinal": "24",
            "role": "Variable Qualifier",
            "simple_data_type": "Char",
            "uri": "http://id.d4k.dk/dataset/cdisc/sdtm/v3-4/ec/ecroute"
        },
        {
            "core": "Perm",
            "ct": "",
            "described_value_domain": "",
            "description": "Lot number of the ECTRT product.",
            "label": "Lot Number",
            "name": "ECLOT",
            "ordinal": "25",
            "role": "Record Qualifier",
            "simple_data_type": "Char",
            "uri": "http://id.d4k.dk/dataset/cdisc/sdtm/v3-4/ec/eclot"
        },
        {
            "core": "Perm",
            "ct": "C74456",
            "described_value_domain": "",
            "description": "Specifies location of administration. Example: \"ARM\", \"LIP\".",
            "label": "Location of Dose Administration",
            "name": "ECLOC",
            "ordinal": "26",
            "role": "Record Qualifier",
            "simple_data_type": "Char",
            "uri": "http://id.d4k.dk/dataset/cdisc/sdtm/v3-4/ec/ecloc"
        },
        {
            "core": "Perm",
            "ct": "C99073",
            "described_value_domain": "",
            "description": "Qualifier for anatomical location further detailing laterality of the intervention administration. Examples: \"LEFT\", \"RIGHT\".",
            "label": "Laterality",
            "name": "ECLAT",
            "ordinal": "27",
            "role": "Variable Qualifier",
            "simple_data_type": "Char",
            "uri": "http://id.d4k.dk/dataset/cdisc/sdtm/v3-4/ec/eclat"
        },
        {
            "core": "Perm",
            "ct": "C99074",
            "described_value_domain": "",
            "description": "Qualifier for anatomical location further detailing directionality. Examples: \"ANTERIOR\", \"LOWER\", \"PROXIMAL\", \"UPPER\".",
            "label": "Directionality",
            "name": "ECDIR",
            "ordinal": "28",
            "role": "Variable Qualifier",
            "simple_data_type": "Char",
            "uri": "http://id.d4k.dk/dataset/cdisc/sdtm/v3-4/ec/ecdir"
        },
        {
            "core": "Perm",
            "ct": "C99075",
            "described_value_domain": "",
            "description": "Qualifier for anatomical location further detailing distribution (i.e., arrangement of, apportioning of). Examples: \"ENTIRE\", \"SINGLE\", \"SEGMENT\".",
            "label": "Portion or Totality",
            "name": "ECPORTOT",
            "ordinal": "29",
            "role": "Variable Qualifier",
            "simple_data_type": "Char",
            "uri": "http://id.d4k.dk/dataset/cdisc/sdtm/v3-4/ec/ecportot"
        },
        {
            "core": "Perm",
            "ct": "C66742",
            "described_value_domain": "",
            "description": "Indicator used to identify fasting status. Examples: \"Y\", \"N\".",
            "label": "Fasting Status",
            "name": "ECFAST",
            "ordinal": "30",
            "role": "Record Qualifier",
            "simple_data_type": "Char",
            "uri": "http://id.d4k.dk/dataset/cdisc/sdtm/v3-4/ec/ecfast"
        },
        {
            "core": "Perm",
            "ct": "",
            "described_value_domain": "",
            "description": "Amount of an active ingredient expressed quantitatively per dosage unit, per unit of volume, or per unit of weight, according to the pharmaceutical dose form.",
            "label": "Pharmaceutical Strength",
            "name": "ECPSTRG",
            "ordinal": "31",
            "role": "Record Qualifier",
            "simple_data_type": "Num",
            "uri": "http://id.d4k.dk/dataset/cdisc/sdtm/v3-4/ec/ecpstrg"
        },
        {
            "core": "Perm",
            "ct": "C71620",
            "described_value_domain": "",
            "description": "Unit for ECPSTRG. Examples: \"mg/TABLET\", \"mg/mL\".",
            "label": "Pharmaceutical Strength Units",
            "name": "ECPSTRGU",
            "ordinal": "32",
            "role": "Variable Qualifier",
            "simple_data_type": "Char",
            "uri": "http://id.d4k.dk/dataset/cdisc/sdtm/v3-4/ec/ecpstrgu"
        },
        {
            "core": "Perm",
            "ct": "",
            "described_value_domain": "",
            "description": "Describes reason or explanation of why a dose is adjusted.",
            "label": "Reason for Dose Adjustment",
            "name": "ECADJ",
            "ordinal": "33",
            "role": "Record Qualifier",
            "simple_data_type": "Char",
            "uri": "http://id.d4k.dk/dataset/cdisc/sdtm/v3-4/ec/ecadj"
        },
        {
            "core": "Perm",
            "ct": "",
            "described_value_domain": "",
            "description": "Number that gives the planned order of the element within the arm.",
            "label": "Planned Order of Element within Arm",
            "name": "TAETORD",
            "ordinal": "34",
            "role": "Timing",
            "simple_data_type": "Num",
            "uri": "http://id.d4k.dk/dataset/cdisc/sdtm/v3-4/ec/taetord"
        },
        {
            "core": "Perm",
            "ct": "C99079",
            "described_value_domain": "",
            "description": "Trial epoch of the exposure as collected record. Examples: \"RUN-IN\", \"TREATMENT\".",
            "label": "Epoch",
            "name": "EPOCH",
            "ordinal": "35",
            "role": "Timing",
            "simple_data_type": "Char",
            "uri": "http://id.d4k.dk/dataset/cdisc/sdtm/v3-4/ec/epoch"
        },
        {
            "core": "Exp",
            "ct": "",
            "described_value_domain": "ISO 8601 datetime or interval",
            "description": "The date/time when administration of the treatment indicated by ECTRT and ECDOSE began.",
            "label": "Start Date/Time of Treatment",
            "name": "ECSTDTC",
            "ordinal": "36",
            "role": "Timing",
            "simple_data_type": "Char",
            "uri": "http://id.d4k.dk/dataset/cdisc/sdtm/v3-4/ec/ecstdtc"
        },
        {
            "core": "Exp",
            "ct": "",
            "described_value_domain": "ISO 8601 datetime or interval",
            "description": "The date/time when administration of the treatment indicated by ECTRT and ECDOSE ended. For administrations considered given at a point in time (e.g., oral tablet, pre-filled syringe injection), where only an administration date/time is collected, ECSTDTC should be copied to ECENDTC as the standard representation.",
            "label": "End Date/Time of Treatment",
            "name": "ECENDTC",
            "ordinal": "37",
            "role": "Timing",
            "simple_data_type": "Char",
            "uri": "http://id.d4k.dk/dataset/cdisc/sdtm/v3-4/ec/ecendtc"
        },
        {
            "core": "Perm",
            "ct": "",
            "described_value_domain": "",
            "description": "Study day of ECSTDTC relative to the sponsor-defined DM.RFSTDTC.",
            "label": "Study Day of Start of Treatment",
            "name": "ECSTDY",
            "ordinal": "38",
            "role": "Timing",
            "simple_data_type": "Num",
            "uri": "http://id.d4k.dk/dataset/cdisc/sdtm/v3-4/ec/ecstdy"
        },
        {
            "core": "Perm",
            "ct": "",
            "described_value_domain": "",
            "description": "Study day of ECENDTC relative to the sponsor-defined DM.RFSTDTC.",
            "label": "Study Day of End of Treatment",
            "name": "ECENDY",
            "ordinal": "39",
            "role": "Timing",
            "simple_data_type": "Num",
            "uri": "http://id.d4k.dk/dataset/cdisc/sdtm/v3-4/ec/ecendy"
        },
        {
            "core": "Perm",
            "ct": "",
            "described_value_domain": "ISO 8601 duration",
            "description": "Collected duration of administration. Used only if collected on the CRF and not derived from start and end date/times.",
            "label": "Duration of Treatment",
            "name": "ECDUR",
            "ordinal": "40",
            "role": "Timing",
            "simple_data_type": "Char",
            "uri": "http://id.d4k.dk/dataset/cdisc/sdtm/v3-4/ec/ecdur"
        },
        {
            "core": "Perm",
            "ct": "",
            "described_value_domain": "",
            "description": "Text description of time when administration should occur. This may be represented as an elapsed time relative to a fixed reference point, such as time of last dose. See ECTPTNUM and ECTPTREF.",
            "label": "Planned Time Point Name",
            "name": "ECTPT",
            "ordinal": "41",
            "role": "Timing",
            "simple_data_type": "Char",
            "uri": "http://id.d4k.dk/dataset/cdisc/sdtm/v3-4/ec/ectpt"
        },
        {
            "core": "Perm",
            "ct": "",
            "described_value_domain": "",
            "description": "Numerical version of ECTPT to aid in sorting.",
            "label": "Planned Time Point Number",
            "name": "ECTPTNUM",
            "ordinal": "42",
            "role": "Timing",
            "simple_data_type": "Num",
            "uri": "http://id.d4k.dk/dataset/cdisc/sdtm/v3-4/ec/ectptnum"
        },
        {
            "core": "Perm",
            "ct": "",
            "described_value_domain": "ISO 8601 duration",
            "description": "Planned elapsed time relative to the planned fixed reference (ECTPTREF). This variable is useful where there are repetitive measures. Not a clock time.",
            "label": "Planned Elapsed Time from Time Point Ref",
            "name": "ECELTM",
            "ordinal": "43",
            "role": "Timing",
            "simple_data_type": "Char",
            "uri": "http://id.d4k.dk/dataset/cdisc/sdtm/v3-4/ec/eceltm"
        },
        {
            "core": "Perm",
            "ct": "",
            "described_value_domain": "",
            "description": "Name of the fixed reference point referred to by ECELTM, ECTPTNUM, and ECTPT. Examples: \"PREVIOUS DOSE\", \"PREVIOUS MEAL\".",
            "label": "Time Point Reference",
            "name": "ECTPTREF",
            "ordinal": "44",
            "role": "Timing",
            "simple_data_type": "Char",
            "uri": "http://id.d4k.dk/dataset/cdisc/sdtm/v3-4/ec/ectptref"
        },
        {
            "core": "Perm",
            "ct": "",
            "described_value_domain": "ISO 8601 datetime or interval",
            "description": "Date/time for a fixed reference time point defined by ECTPTREF.",
            "label": "Date/Time of Reference Time Point",
            "name": "ECRFTDTC",
            "ordinal": "45",
            "role": "Timing",
            "simple_data_type": "Char",
            "uri": "http://id.d4k.dk/dataset/cdisc/sdtm/v3-4/ec/ecrftdtc"
        },
        {
            "core": "Req",
            "ct": "",
            "described_value_domain": "",
            "description": "Unique identifier for a study.",
            "label": "Study Identifier",
            "name": "STUDYID",
            "ordinal": "1",
            "role": "Identifier",
            "simple_data_type": "Char",
            "uri": "http://id.d4k.dk/dataset/cdisc/sdtm/v3-4/ex/studyid"
        },
        {
            "core": "Req",
            "ct": "",
            "described_value_domain": "",
            "description": "Two-character abbreviation for the domain.",
            "label": "Domain Abbreviation",
            "name": "DOMAIN",
            "ordinal": "2",
            "role": "Identifier",
            "simple_data_type": "Char",
            "uri": "http://id.d4k.dk/dataset/cdisc/sdtm/v3-4/ex/domain"
        },
        {
            "core": "Req",
            "ct": "",
            "described_value_domain": "",
            "description": "Identifier used to uniquely identify a subject across all studies for all applications or submissions involving the product.",
            "label": "Unique Subject Identifier",
            "name": "USUBJID",
            "ordinal": "3",
            "role": "Identifier",
            "simple_data_type": "Char",
            "uri": "http://id.d4k.dk/dataset/cdisc/sdtm/v3-4/ex/usubjid"
        },
        {
            "core": "Req",
            "ct": "",
            "described_value_domain": "",
            "description": "Sequence number given to ensure uniqueness of subject records within a domain. May be any valid number.",
            "label": "Sequence Number",
            "name": "EXSEQ",
            "ordinal": "4",
            "role": "Identifier",
            "simple_data_type": "Num",
            "uri": "http://id.d4k.dk/dataset/cdisc/sdtm/v3-4/ex/exseq"
        },
        {
            "core": "Perm",
            "ct": "",
            "described_value_domain": "",
            "description": "Used to tie together a block of related records in a single domain for a subject.",
            "label": "Group ID",
            "name": "EXGRPID",
            "ordinal": "5",
            "role": "Identifier",
            "simple_data_type": "Char",
            "uri": "http://id.d4k.dk/dataset/cdisc/sdtm/v3-4/ex/exgrpid"
        },
        {
            "core": "Perm",
            "ct": "",
            "described_value_domain": "",
            "description": "Internal or external identifier (e.g., kit number, bottle label, vial identifier).",
            "label": "Reference ID",
            "name": "EXREFID",
            "ordinal": "6",
            "role": "Identifier",
            "simple_data_type": "Char",
            "uri": "http://id.d4k.dk/dataset/cdisc/sdtm/v3-4/ex/exrefid"
        },
        {
            "core": "Perm",
            "ct": "",
            "described_value_domain": "",
            "description": "Sponsor-defined reference number. May be preprinted on the CRF as an explicit line identifier or defined in the sponsor's operational database. Example: Line number on a CRF page.",
            "label": "Sponsor-Defined Identifier",
            "name": "EXSPID",
            "ordinal": "7",
            "role": "Identifier",
            "simple_data_type": "Char",
            "uri": "http://id.d4k.dk/dataset/cdisc/sdtm/v3-4/ex/exspid"
        },
        {
            "core": "Perm",
            "ct": "",
            "described_value_domain": "",
            "description": "Identifier used to link related records across domains.",
            "label": "Link ID",
            "name": "EXLNKID",
            "ordinal": "8",
            "role": "Identifier",
            "simple_data_type": "Char",
            "uri": "http://id.d4k.dk/dataset/cdisc/sdtm/v3-4/ex/exlnkid"
        },
        {
            "core": "Perm",
            "ct": "",
            "described_value_domain": "",
            "description": "Identifier used to link related, grouped records across domains.",
            "label": "Link Group ID",
            "name": "EXLNKGRP",
            "ordinal": "9",
            "role": "Identifier",
            "simple_data_type": "Char",
            "uri": "http://id.d4k.dk/dataset/cdisc/sdtm/v3-4/ex/exlnkgrp"
        },
        {
            "core": "Req",
            "ct": "",
            "described_value_domain": "",
            "description": "Name of the protocol-specified study treatment given during the dosing period for the observation.",
            "label": "Name of Treatment",
            "name": "EXTRT",
            "ordinal": "10",
            "role": "Topic",
            "simple_data_type": "Char",
            "uri": "http://id.d4k.dk/dataset/cdisc/sdtm/v3-4/ex/extrt"
        },
        {
            "core": "Perm",
            "ct": "",
            "described_value_domain": "",
            "description": "Used to define a category of EXTRT values.",
            "label": "Category of Treatment",
            "name": "EXCAT",
            "ordinal": "11",
            "role": "Grouping Qualifier",
            "simple_data_type": "Char",
            "uri": "http://id.d4k.dk/dataset/cdisc/sdtm/v3-4/ex/excat"
        },
        {
            "core": "Perm",
            "ct": "",
            "described_value_domain": "",
            "description": "A further categorization of EXCAT values.",
            "label": "Subcategory of Treatment",
            "name": "EXSCAT",
            "ordinal": "12",
            "role": "Grouping Qualifier",
            "simple_data_type": "Char",
            "uri": "http://id.d4k.dk/dataset/cdisc/sdtm/v3-4/ex/exscat"
        },
        {
            "core": "Exp",
            "ct": "",
            "described_value_domain": "",
            "description": "Amount of EXTRT when numeric. Not populated when EXDOSTXT is populated.",
            "label": "Dose",
            "name": "EXDOSE",
            "ordinal": "13",
            "role": "Record Qualifier",
            "simple_data_type": "Num",
            "uri": "http://id.d4k.dk/dataset/cdisc/sdtm/v3-4/ex/exdose"
        },
        {
            "core": "Perm",
            "ct": "",
            "described_value_domain": "",
            "description": "Amount of EXTRT when non-numeric. Dosing amounts or a range of dosing information collected in text form. Example: \"200-400\". Not populated when EXDOSE is populated.",
            "label": "Dose Description",
            "name": "EXDOSTXT",
            "ordinal": "14",
            "role": "Record Qualifier",
            "simple_data_type": "Char",
            "uri": "http://id.d4k.dk/dataset/cdisc/sdtm/v3-4/ex/exdostxt"
        },
        {
            "core": "Exp",
            "ct": "C71620",
            "described_value_domain": "",
            "description": "Units for EXDOSE, EXDOSTOT, or EXDOSTXT representing protocol-specified values. Examples: \"ng\", \"mg\", \"mg/kg\", \"mg/m2\".",
            "label": "Dose Units",
            "name": "EXDOSU",
            "ordinal": "15",
            "role": "Variable Qualifier",
            "simple_data_type": "Char",
            "uri": "http://id.d4k.dk/dataset/cdisc/sdtm/v3-4/ex/exdosu"
        },
        {
            "core": "Exp",
            "ct": "C66726",
            "described_value_domain": "",
            "description": "Dose form for EXTRT. Examples: \"TABLET\", \"LOTION\".",
            "label": "Dose Form",
            "name": "EXDOSFRM",
            "ordinal": "16",
            "role": "Variable Qualifier",
            "simple_data_type": "Char",
            "uri": "http://id.d4k.dk/dataset/cdisc/sdtm/v3-4/ex/exdosfrm"
        },
        {
            "core": "Perm",
            "ct": "C71113",
            "described_value_domain": "",
            "description": "Usually expressed as the number of repeated administrations of EXDOSE within a specific time period. Examples: \"Q2H\", \"QD\", \"BID\".",
            "label": "Dosing Frequency per Interval",
            "name": "EXDOSFRQ",
            "ordinal": "17",
            "role": "Record Qualifier",
            "simple_data_type": "Char",
            "uri": "http://id.d4k.dk/dataset/cdisc/sdtm/v3-4/ex/exdosfrq"
        },
        {
            "core": "Perm",
            "ct": "",
            "described_value_domain": "",
            "description": "Text description of the intended schedule or regimen for the Intervention. Example: \"TWO WEEKS ON, TWO WEEKS OFF\".",
            "label": "Intended Dose Regimen",
            "name": "EXDOSRGM",
            "ordinal": "18",
            "role": "Record Qualifier",
            "simple_data_type": "Char",
            "uri": "http://id.d4k.dk/dataset/cdisc/sdtm/v3-4/ex/exdosrgm"
        },
        {
            "core": "Perm",
            "ct": "C66729",
            "described_value_domain": "",
            "description": "Route of administration for the intervention. Examples: \"ORAL\", \"INTRAVENOUS\".",
            "label": "Route of Administration",
            "name": "EXROUTE",
            "ordinal": "19",
            "role": "Variable Qualifier",
            "simple_data_type": "Char",
            "uri": "http://id.d4k.dk/dataset/cdisc/sdtm/v3-4/ex/exroute"
        },
        {
            "core": "Perm",
            "ct": "",
            "described_value_domain": "",
            "description": "Lot number of the intervention product.",
            "label": "Lot Number",
            "name": "EXLOT",
            "ordinal": "20",
            "role": "Record Qualifier",
            "simple_data_type": "Char",
            "uri": "http://id.d4k.dk/dataset/cdisc/sdtm/v3-4/ex/exlot"
        },
        {
            "core": "Perm",
            "ct": "C74456",
            "described_value_domain": "",
            "description": "Specifies location of administration. Examples: \"ARM\", \"LIP\".",
            "label": "Location of Dose Administration",
            "name": "EXLOC",
            "ordinal": "21",
            "role": "Record Qualifier",
            "simple_data_type": "Char",
            "uri": "http://id.d4k.dk/dataset/cdisc/sdtm/v3-4/ex/exloc"
        },
        {
            "core": "Perm",
            "ct": "C99073",
            "described_value_domain": "",
            "description": "Qualifier for anatomical location further detailing laterality of the intervention administration. Examples: \"LEFT\", \"RIGHT\".",
            "label": "Laterality",
            "name": "EXLAT",
            "ordinal": "22",
            "role": "Variable Qualifier",
            "simple_data_type": "Char",
            "uri": "http://id.d4k.dk/dataset/cdisc/sdtm/v3-4/ex/exlat"
        },
        {
            "core": "Perm",
            "ct": "C99074",
            "described_value_domain": "",
            "description": "Qualifier for anatomical location further detailing directionality. Examples: \"ANTERIOR\", \"LOWER\", \"PROXIMAL\", \"UPPER\".",
            "label": "Directionality",
            "name": "EXDIR",
            "ordinal": "23",
            "role": "Variable Qualifier",
            "simple_data_type": "Char",
            "uri": "http://id.d4k.dk/dataset/cdisc/sdtm/v3-4/ex/exdir"
        },
        {
            "core": "Perm",
            "ct": "C66742",
            "described_value_domain": "",
            "description": "Indicator used to identify fasting status. Examples: \"Y\", \"N\".",
            "label": "Fasting Status",
            "name": "EXFAST",
            "ordinal": "24",
            "role": "Record Qualifier",
            "simple_data_type": "Char",
            "uri": "http://id.d4k.dk/dataset/cdisc/sdtm/v3-4/ex/exfast"
        },
        {
            "core": "Perm",
            "ct": "",
            "described_value_domain": "",
            "description": "Describes reason or explanation of why a dose is adjusted.",
            "label": "Reason for Dose Adjustment",
            "name": "EXADJ",
            "ordinal": "25",
            "role": "Record Qualifier",
            "simple_data_type": "Char",
            "uri": "http://id.d4k.dk/dataset/cdisc/sdtm/v3-4/ex/exadj"
        },
        {
            "core": "Perm",
            "ct": "",
            "described_value_domain": "",
            "description": "Number that gives the planned order of the element within the arm.",
            "label": "Planned Order of Element within Arm",
            "name": "TAETORD",
            "ordinal": "26",
            "role": "Timing",
            "simple_data_type": "Num",
            "uri": "http://id.d4k.dk/dataset/cdisc/sdtm/v3-4/ex/taetord"
        },
        {
            "core": "Perm",
            "ct": "C99079",
            "described_value_domain": "",
            "description": "Trial epoch of the exposure record. Examples: \"RUN-IN\", \"TREATMENT\".",
            "label": "Epoch",
            "name": "EPOCH",
            "ordinal": "27",
            "role": "Timing",
            "simple_data_type": "Char",
            "uri": "http://id.d4k.dk/dataset/cdisc/sdtm/v3-4/ex/epoch"
        },
        {
            "core": "Exp",
            "ct": "",
            "described_value_domain": "ISO 8601 datetime or interval",
            "description": "The date/time when administration of the treatment indicated by EXTRT and EXDOSE began.",
            "label": "Start Date/Time of Treatment",
            "name": "EXSTDTC",
            "ordinal": "28",
            "role": "Timing",
            "simple_data_type": "Char",
            "uri": "http://id.d4k.dk/dataset/cdisc/sdtm/v3-4/ex/exstdtc"
        },
        {
            "core": "Exp",
            "ct": "",
            "described_value_domain": "ISO 8601 datetime or interval",
            "description": "The date/time when administration of the treatment indicated by EXTRT and EXDOSE ended. For administrations considered given at a point in time (e.g., oral tablet, pre-filled syringe injection), where only an administration date/time is collected, EXSTDTC should be copied to EXENDTC as the standard representation.",
            "label": "End Date/Time of Treatment",
            "name": "EXENDTC",
            "ordinal": "29",
            "role": "Timing",
            "simple_data_type": "Char",
            "uri": "http://id.d4k.dk/dataset/cdisc/sdtm/v3-4/ex/exendtc"
        },
        {
            "core": "Perm",
            "ct": "",
            "described_value_domain": "",
            "description": "Study day of EXSTDTC relative to DM.RFSTDTC.",
            "label": "Study Day of Start of Treatment",
            "name": "EXSTDY",
            "ordinal": "30",
            "role": "Timing",
            "simple_data_type": "Num",
            "uri": "http://id.d4k.dk/dataset/cdisc/sdtm/v3-4/ex/exstdy"
        },
        {
            "core": "Perm",
            "ct": "",
            "described_value_domain": "",
            "description": "Study day of EXENDTC relative to DM.RFSTDTC.",
            "label": "Study Day of End of Treatment",
            "name": "EXENDY",
            "ordinal": "31",
            "role": "Timing",
            "simple_data_type": "Num",
            "uri": "http://id.d4k.dk/dataset/cdisc/sdtm/v3-4/ex/exendy"
        },
        {
            "core": "Perm",
            "ct": "",
            "described_value_domain": "ISO 8601 duration",
            "description": "Collected duration of administration. Used only if collected on the CRF and not derived from start and end date/times.",
            "label": "Duration of Treatment",
            "name": "EXDUR",
            "ordinal": "32",
            "role": "Timing",
            "simple_data_type": "Char",
            "uri": "http://id.d4k.dk/dataset/cdisc/sdtm/v3-4/ex/exdur"
        },
        {
            "core": "Perm",
            "ct": "",
            "described_value_domain": "",
            "description": "Text description of time when administration should occur. This may be represented as an elapsed time relative to a fixed reference point, such as time of last dose. See EXTPTNUM and EXTPTREF.",
            "label": "Planned Time Point Name",
            "name": "EXTPT",
            "ordinal": "33",
            "role": "Timing",
            "simple_data_type": "Char",
            "uri": "http://id.d4k.dk/dataset/cdisc/sdtm/v3-4/ex/extpt"
        },
        {
            "core": "Perm",
            "ct": "",
            "described_value_domain": "",
            "description": "Numerical version of EXTPT to aid in sorting.",
            "label": "Planned Time Point Number",
            "name": "EXTPTNUM",
            "ordinal": "34",
            "role": "Timing",
            "simple_data_type": "Num",
            "uri": "http://id.d4k.dk/dataset/cdisc/sdtm/v3-4/ex/extptnum"
        },
        {
            "core": "Perm",
            "ct": "",
            "described_value_domain": "ISO 8601 duration",
            "description": "Planned elapsed time relative to the planned fixed reference (EXTPTREF). This variable is useful where there are repetitive measures. Not a clock time.",
            "label": "Planned Elapsed Time from Time Point Ref",
            "name": "EXELTM",
            "ordinal": "35",
            "role": "Timing",
            "simple_data_type": "Char",
            "uri": "http://id.d4k.dk/dataset/cdisc/sdtm/v3-4/ex/exeltm"
        },
        {
            "core": "Perm",
            "ct": "",
            "described_value_domain": "",
            "description": "Name of the fixed reference point referred to by EXELTM, EXTPTNUM, and EXTPT. Examples: PREVIOUS DOSE, PREVIOUS MEAL.",
            "label": "Time Point Reference",
            "name": "EXTPTREF",
            "ordinal": "36",
            "role": "Timing",
            "simple_data_type": "Char",
            "uri": "http://id.d4k.dk/dataset/cdisc/sdtm/v3-4/ex/extptref"
        },
        {
            "core": "Perm",
            "ct": "",
            "described_value_domain": "ISO 8601 datetime or interval",
            "description": "Date/time for a fixed reference time point defined by EXTPTREF.",
            "label": "Date/Time of Reference Time Point",
            "name": "EXRFTDTC",
            "ordinal": "37",
            "role": "Timing",
            "simple_data_type": "Char",
            "uri": "http://id.d4k.dk/dataset/cdisc/sdtm/v3-4/ex/exrftdtc"
        },
        {
            "core": "Req",
            "ct": "",
            "described_value_domain": "",
            "description": "Unique identifier for a study.",
            "label": "Study Identifier",
            "name": "STUDYID",
            "ordinal": "1",
            "role": "Identifier",
            "simple_data_type": "Char",
            "uri": "http://id.d4k.dk/dataset/cdisc/sdtm/v3-4/ml/studyid"
        },
        {
            "core": "Req",
            "ct": "",
            "described_value_domain": "",
            "description": "Two-character abbreviation for the domain.",
            "label": "Domain Abbreviation",
            "name": "DOMAIN",
            "ordinal": "2",
            "role": "Identifier",
            "simple_data_type": "Char",
            "uri": "http://id.d4k.dk/dataset/cdisc/sdtm/v3-4/ml/domain"
        },
        {
            "core": "Req",
            "ct": "",
            "described_value_domain": "",
            "description": "Identifier used to uniquely identify a subject across all studies for all applications or submissions involving the product.",
            "label": "Unique Subject Identifier",
            "name": "USUBJID",
            "ordinal": "3",
            "role": "Identifier",
            "simple_data_type": "Char",
            "uri": "http://id.d4k.dk/dataset/cdisc/sdtm/v3-4/ml/usubjid"
        },
        {
            "core": "Req",
            "ct": "",
            "described_value_domain": "",
            "description": "Sequence number given to ensure uniqueness of subject records within a domain. May be any valid number.",
            "label": "Sequence Number",
            "name": "MLSEQ",
            "ordinal": "4",
            "role": "Identifier",
            "simple_data_type": "Num",
            "uri": "http://id.d4k.dk/dataset/cdisc/sdtm/v3-4/ml/mlseq"
        },
        {
            "core": "Perm",
            "ct": "",
            "described_value_domain": "",
            "description": "Used to tie together a block of related records in a single domain for a subject.",
            "label": "Group ID",
            "name": "MLGRPID",
            "ordinal": "5",
            "role": "Identifier",
            "simple_data_type": "Char",
            "uri": "http://id.d4k.dk/dataset/cdisc/sdtm/v3-4/ml/mlgrpid"
        },
        {
            "core": "Perm",
            "ct": "",
            "described_value_domain": "",
            "description": "Sponsor-defined reference number. Examples: a number preprinted on the CRF as an explicit line identifier, record identifier defined in the sponsor's operational database.",
            "label": "Sponsor-Defined Identifier",
            "name": "MLSPID",
            "ordinal": "6",
            "role": "Identifier",
            "simple_data_type": "Char",
            "uri": "http://id.d4k.dk/dataset/cdisc/sdtm/v3-4/ml/mlspid"
        },
        {
            "core": "Req",
            "ct": "",
            "described_value_domain": "",
            "description": "Verbatim food product name that is either preprinted or collected on a CRF.",
            "label": "Name of Meal",
            "name": "MLTRT",
            "ordinal": "7",
            "role": "Topic",
            "simple_data_type": "Char",
            "uri": "http://id.d4k.dk/dataset/cdisc/sdtm/v3-4/ml/mltrt"
        },
        {
            "core": "Perm",
            "ct": "",
            "described_value_domain": "",
            "description": "Used to define a category of MLTRT values.",
            "label": "Category for Meal",
            "name": "MLCAT",
            "ordinal": "8",
            "role": "Grouping Qualifier",
            "simple_data_type": "Char",
            "uri": "http://id.d4k.dk/dataset/cdisc/sdtm/v3-4/ml/mlcat"
        },
        {
            "core": "Perm",
            "ct": "",
            "described_value_domain": "",
            "description": "Used to define a further categorization of MLCAT values.",
            "label": "Subcategory for Meal",
            "name": "MLSCAT",
            "ordinal": "9",
            "role": "Grouping Qualifier",
            "simple_data_type": "Char",
            "uri": "http://id.d4k.dk/dataset/cdisc/sdtm/v3-4/ml/mlscat"
        },
        {
            "core": "Perm",
            "ct": "C66742",
            "described_value_domain": "",
            "description": "Used when a specific meal is prespecified on a CRF. Values should be \"Y\" or null.",
            "label": "ML Pre-specified",
            "name": "MLPRESP",
            "ordinal": "10",
            "role": "Variable Qualifier",
            "simple_data_type": "Char",
            "uri": "http://id.d4k.dk/dataset/cdisc/sdtm/v3-4/ml/mlpresp"
        },
        {
            "core": "Perm",
            "ct": "C66742",
            "described_value_domain": "",
            "description": "Used to record whether a prespecified meal occurred when information about the occurrence of a specific meal is solicited.",
            "label": "ML Occurrence",
            "name": "MLOCCUR",
            "ordinal": "11",
            "role": "Record Qualifier",
            "simple_data_type": "Char",
            "uri": "http://id.d4k.dk/dataset/cdisc/sdtm/v3-4/ml/mloccur"
        },
        {
            "core": "Perm",
            "ct": "C66789",
            "described_value_domain": "",
            "description": "Used to indicate when a question about the occurrence of a prespecified meal was not answered. Should be null or have a value of \"NOT DONE\".",
            "label": "Completion Status",
            "name": "MLSTAT",
            "ordinal": "12",
            "role": "Record Qualifier",
            "simple_data_type": "Char",
            "uri": "http://id.d4k.dk/dataset/cdisc/sdtm/v3-4/ml/mlstat"
        },
        {
            "core": "Perm",
            "ct": "",
            "described_value_domain": "",
            "description": "Describes the reason a response to a question about the occurrence of a meal was not collected. Used in conjunction with MLSTAT when value is \"NOT DONE\".",
            "label": "Reason Meal Not Collected",
            "name": "MLREASND",
            "ordinal": "13",
            "role": "Record Qualifier",
            "simple_data_type": "Char",
            "uri": "http://id.d4k.dk/dataset/cdisc/sdtm/v3-4/ml/mlreasnd"
        },
        {
            "core": "Perm",
            "ct": "",
            "described_value_domain": "",
            "description": "Amount of MLTRT consumed. Not populated when MLDOSTXT is populated.",
            "label": "Dose",
            "name": "MLDOSE",
            "ordinal": "14",
            "role": "Record Qualifier",
            "simple_data_type": "Num",
            "uri": "http://id.d4k.dk/dataset/cdisc/sdtm/v3-4/ml/mldose"
        },
        {
            "core": "Perm",
            "ct": "",
            "described_value_domain": "",
            "description": "Amount description of MLTRT consumed, collected in text form. Not populated when MLDOSE is populated. Examples: \"<1 per day\", \"200-400\".",
            "label": "Dose Description",
            "name": "MLDOSTXT",
            "ordinal": "15",
            "role": "Record Qualifier",
            "simple_data_type": "Char",
            "uri": "http://id.d4k.dk/dataset/cdisc/sdtm/v3-4/ml/mldostxt"
        },
        {
            "core": "Perm",
            "ct": "C71620",
            "described_value_domain": "",
            "description": "Units for MLDOSE, MLDOSTOT, or MLDOSTXT.",
            "label": "Dose Units",
            "name": "MLDOSU",
            "ordinal": "16",
            "role": "Variable Qualifier",
            "simple_data_type": "Char",
            "uri": "http://id.d4k.dk/dataset/cdisc/sdtm/v3-4/ml/mldosu"
        },
        {
            "core": "Perm",
            "ct": "C66726",
            "described_value_domain": "",
            "description": "Dosage form for MLTRT. Example: \"BAR, CHEWABLE\".",
            "label": "Dose Form",
            "name": "MLDOSFRM",
            "ordinal": "17",
            "role": "Variable Qualifier",
            "simple_data_type": "Char",
            "uri": "http://id.d4k.dk/dataset/cdisc/sdtm/v3-4/ml/mldosfrm"
        },
        {
            "core": "Perm",
            "ct": "",
            "described_value_domain": "",
            "description": "Clinical encounter number. Numeric version of VISIT, used for sorting.",
            "label": "Visit Number",
            "name": "VISITNUM",
            "ordinal": "18",
            "role": "Timing",
            "simple_data_type": "Num",
            "uri": "http://id.d4k.dk/dataset/cdisc/sdtm/v3-4/ml/visitnum"
        },
        {
            "core": "Perm",
            "ct": "",
            "described_value_domain": "",
            "description": "Protocol-defined description of a clinical encounter.",
            "label": "Visit Name",
            "name": "VISIT",
            "ordinal": "19",
            "role": "Timing",
            "simple_data_type": "Char",
            "uri": "http://id.d4k.dk/dataset/cdisc/sdtm/v3-4/ml/visit"
        },
        {
            "core": "Perm",
            "ct": "",
            "described_value_domain": "",
            "description": "Planned study day of VISIT. Should be an integer.",
            "label": "Planned Study Day of Visit",
            "name": "VISITDY",
            "ordinal": "20",
            "role": "Timing",
            "simple_data_type": "Num",
            "uri": "http://id.d4k.dk/dataset/cdisc/sdtm/v3-4/ml/visitdy"
        },
        {
            "core": "Perm",
            "ct": "",
            "described_value_domain": "",
            "description": "Number that gives the planned order of the element within the arm for the element in which the meal started.",
            "label": "Planned Order of Element within Arm",
            "name": "TAETORD",
            "ordinal": "21",
            "role": "Timing",
            "simple_data_type": "Num",
            "uri": "http://id.d4k.dk/dataset/cdisc/sdtm/v3-4/ml/taetord"
        },
        {
            "core": "Perm",
            "ct": "C99079",
            "described_value_domain": "",
            "description": "Epoch associated with the start date/time of the meal.",
            "label": "Epoch",
            "name": "EPOCH",
            "ordinal": "22",
            "role": "Timing",
            "simple_data_type": "Char",
            "uri": "http://id.d4k.dk/dataset/cdisc/sdtm/v3-4/ml/epoch"
        },
        {
            "core": "Perm",
            "ct": "",
            "described_value_domain": "ISO 8601 datetime or interval",
            "description": "Collection date and time of the meal represented in ISO 8601 character format.",
            "label": "Date/Time of Collection",
            "name": "MLDTC",
            "ordinal": "23",
            "role": "Timing",
            "simple_data_type": "Char",
            "uri": "http://id.d4k.dk/dataset/cdisc/sdtm/v3-4/ml/mldtc"
        },
        {
            "core": "Perm",
            "ct": "",
            "described_value_domain": "ISO 8601 datetime or interval",
            "description": "Start date/time of the meal represented in ISO 8601 character format.",
            "label": "Start Date/Time of Meal",
            "name": "MLSTDTC",
            "ordinal": "24",
            "role": "Timing",
            "simple_data_type": "Char",
            "uri": "http://id.d4k.dk/dataset/cdisc/sdtm/v3-4/ml/mlstdtc"
        },
        {
            "core": "Perm",
            "ct": "",
            "described_value_domain": "ISO 8601 datetime or interval",
            "description": "End date/time of the meal represented in ISO 8601 character format.",
            "label": "End Date/Time of Meal",
            "name": "MLENDTC",
            "ordinal": "25",
            "role": "Timing",
            "simple_data_type": "Char",
            "uri": "http://id.d4k.dk/dataset/cdisc/sdtm/v3-4/ml/mlendtc"
        },
        {
            "core": "Perm",
            "ct": "",
            "described_value_domain": "",
            "description": "Actual study day of the visit/collection expressed in integer days relative to the sponsor-defined RFSTDTC in Demographics.",
            "label": "Study Day of Visit/Collection/Exam",
            "name": "MLDY",
            "ordinal": "26",
            "role": "Timing",
            "simple_data_type": "Num",
            "uri": "http://id.d4k.dk/dataset/cdisc/sdtm/v3-4/ml/mldy"
        },
        {
            "core": "Perm",
            "ct": "",
            "described_value_domain": "",
            "description": "Actual study day of start of the meal expressed in integer days relative to sponsor-defined RFSTDTC in Demographics.",
            "label": "Study Day of Start of Meal",
            "name": "MLSTDY",
            "ordinal": "27",
            "role": "Timing",
            "simple_data_type": "Num",
            "uri": "http://id.d4k.dk/dataset/cdisc/sdtm/v3-4/ml/mlstdy"
        },
        {
            "core": "Perm",
            "ct": "",
            "described_value_domain": "",
            "description": "Actual study day of end of the meal expressed in integer days relative to the sponsor-defined RFSTDTC in Demographics.",
            "label": "Study Day of End of Meal",
            "name": "MLENDY",
            "ordinal": "28",
            "role": "Timing",
            "simple_data_type": "Num",
            "uri": "http://id.d4k.dk/dataset/cdisc/sdtm/v3-4/ml/mlendy"
        },
        {
            "core": "Perm",
            "ct": "",
            "described_value_domain": "ISO 8601 duration",
            "description": "Collected duration of the meal represented in ISO 8601 character format. Used only if collected on the CRF and not derived.",
            "label": "Duration of Meal",
            "name": "MLDUR",
            "ordinal": "29",
            "role": "Timing",
            "simple_data_type": "Char",
            "uri": "http://id.d4k.dk/dataset/cdisc/sdtm/v3-4/ml/mldur"
        },
        {
            "core": "Perm",
            "ct": "",
            "described_value_domain": "",
            "description": "Text description of time when a measurement or observation should be taken as defined in the protocol. This may be represented as an elapsed time relative to a fixed reference point. See MLTPTNUM and MLTPTREF.",
            "label": "Planned Time Point Name",
            "name": "MLTPT",
            "ordinal": "30",
            "role": "Timing",
            "simple_data_type": "Char",
            "uri": "http://id.d4k.dk/dataset/cdisc/sdtm/v3-4/ml/mltpt"
        },
        {
            "core": "Perm",
            "ct": "",
            "described_value_domain": "",
            "description": "Numeric version of planned time point used in sorting.",
            "label": "Planned Time Point Number",
            "name": "MLTPTNUM",
            "ordinal": "31",
            "role": "Timing",
            "simple_data_type": "Num",
            "uri": "http://id.d4k.dk/dataset/cdisc/sdtm/v3-4/ml/mltptnum"
        },
        {
            "core": "Perm",
            "ct": "",
            "described_value_domain": "ISO 8601 duration",
            "description": "Planned elapsed time (in ISO 8601) relative to the planned fixed reference (MLTPTREF). This variable is useful when there are repetitive measures. Not a clock time or a date/time variable. Represented as an ISO 8601 duration.",
            "label": "Planned Elapsed Time from Time Point Ref",
            "name": "MLELTM",
            "ordinal": "32",
            "role": "Timing",
            "simple_data_type": "Char",
            "uri": "http://id.d4k.dk/dataset/cdisc/sdtm/v3-4/ml/mleltm"
        },
        {
            "core": "Perm",
            "ct": "",
            "described_value_domain": "",
            "description": "Description of the fixed reference point referred to by MLELTM, MLTPTNUM, and MLTPT.",
            "label": "Time Point Reference",
            "name": "MLTPTREF",
            "ordinal": "33",
            "role": "Timing",
            "simple_data_type": "Char",
            "uri": "http://id.d4k.dk/dataset/cdisc/sdtm/v3-4/ml/mltptref"
        },
        {
            "core": "Perm",
            "ct": "",
            "described_value_domain": "ISO 8601 datetime or interval",
            "description": "Date/time for a fixed reference time point defined by MLTPTREF in ISO 8601 character format.",
            "label": "Date/Time of Reference Time Point",
            "name": "MLRFTDTC",
            "ordinal": "34",
            "role": "Timing",
            "simple_data_type": "Char",
            "uri": "http://id.d4k.dk/dataset/cdisc/sdtm/v3-4/ml/mlrftdtc"
        },
        {
            "core": "Perm",
            "ct": "",
            "described_value_domain": "",
            "description": "The name of a specific instance of a disease milestone type (MIDSTYPE) described in the Trial Disease Milestones dataset. This should be unique within a subject. Used only in conjunction with RELMIDS and MIDSDTC.",
            "label": "Disease Milestone Instance Name",
            "name": "MIDS",
            "ordinal": "35",
            "role": "Timing",
            "simple_data_type": "Char",
            "uri": "http://id.d4k.dk/dataset/cdisc/sdtm/v3-4/ml/mids"
        },
        {
            "core": "Perm",
            "ct": "",
            "described_value_domain": "",
            "description": "The temporal relationship of the observation to the disease milestone instance name in MIDS. Examples: \"IMMEDIATELY BEFORE\", \"AT TIME OF\", \"AFTER\".",
            "label": "Temporal Relation to Milestone Instance",
            "name": "RELMIDS",
            "ordinal": "36",
            "role": "Timing",
            "simple_data_type": "Char",
            "uri": "http://id.d4k.dk/dataset/cdisc/sdtm/v3-4/ml/relmids"
        },
        {
            "core": "Perm",
            "ct": "",
            "described_value_domain": "ISO 8601 datetime or interval",
            "description": "The start date/time of the disease milestone instance name in MIDS, in ISO 8601 format.",
            "label": "Disease Milestone Instance Date/Time",
            "name": "MIDSDTC",
            "ordinal": "37",
            "role": "Timing",
            "simple_data_type": "Char",
            "uri": "http://id.d4k.dk/dataset/cdisc/sdtm/v3-4/ml/midsdtc"
        },
        {
            "core": "Req",
            "ct": "",
            "described_value_domain": "",
            "description": "Unique identifier for a study.",
            "label": "Study Identifier",
            "name": "STUDYID",
            "ordinal": "1",
            "role": "Identifier",
            "simple_data_type": "Char",
            "uri": "http://id.d4k.dk/dataset/cdisc/sdtm/v3-4/pr/studyid"
        },
        {
            "core": "Req",
            "ct": "",
            "described_value_domain": "",
            "description": "Two-character abbreviation for the domain.",
            "label": "Domain Abbreviation",
            "name": "DOMAIN",
            "ordinal": "2",
            "role": "Identifier",
            "simple_data_type": "Char",
            "uri": "http://id.d4k.dk/dataset/cdisc/sdtm/v3-4/pr/domain"
        },
        {
            "core": "Req",
            "ct": "",
            "described_value_domain": "",
            "description": "Identifier used to uniquely identify a subject across all studies for all applications or submissions involving the product.",
            "label": "Unique Subject Identifier",
            "name": "USUBJID",
            "ordinal": "3",
            "role": "Identifier",
            "simple_data_type": "Char",
            "uri": "http://id.d4k.dk/dataset/cdisc/sdtm/v3-4/pr/usubjid"
        },
        {
            "core": "Req",
            "ct": "",
            "described_value_domain": "",
            "description": "Sequence number given to ensure uniqueness of subject records within a domain. May be any valid number.",
            "label": "Sequence Number",
            "name": "PRSEQ",
            "ordinal": "4",
            "role": "Identifier",
            "simple_data_type": "Num",
            "uri": "http://id.d4k.dk/dataset/cdisc/sdtm/v3-4/pr/prseq"
        },
        {
            "core": "Perm",
            "ct": "",
            "described_value_domain": "",
            "description": "Used to link together a block of related records within a subject in a domain.",
            "label": "Group ID",
            "name": "PRGRPID",
            "ordinal": "5",
            "role": "Identifier",
            "simple_data_type": "Char",
            "uri": "http://id.d4k.dk/dataset/cdisc/sdtm/v3-4/pr/prgrpid"
        },
        {
            "core": "Perm",
            "ct": "",
            "described_value_domain": "",
            "description": "Sponsor-defined identifier. Example: preprinted line identifier on a CRF, record identifier defined in the sponsor's operational database.",
            "label": "Sponsor-Defined Identifier",
            "name": "PRSPID",
            "ordinal": "6",
            "role": "Identifier",
            "simple_data_type": "Char",
            "uri": "http://id.d4k.dk/dataset/cdisc/sdtm/v3-4/pr/prspid"
        },
        {
            "core": "Perm",
            "ct": "",
            "described_value_domain": "",
            "description": "Used to facilitate identification of relationships between records.",
            "label": "Link ID",
            "name": "PRLNKID",
            "ordinal": "7",
            "role": "Identifier",
            "simple_data_type": "Char",
            "uri": "http://id.d4k.dk/dataset/cdisc/sdtm/v3-4/pr/prlnkid"
        },
        {
            "core": "Perm",
            "ct": "",
            "described_value_domain": "",
            "description": "Used to facilitate identification of relationships between records.",
            "label": "Link Group ID",
            "name": "PRLNKGRP",
            "ordinal": "8",
            "role": "Identifier",
            "simple_data_type": "Char",
            "uri": "http://id.d4k.dk/dataset/cdisc/sdtm/v3-4/pr/prlnkgrp"
        },
        {
            "core": "Req",
            "ct": "",
            "described_value_domain": "",
            "description": "Name of procedure performed, either preprinted or collected on a CRF.",
            "label": "Reported Name of Procedure",
            "name": "PRTRT",
            "ordinal": "9",
            "role": "Topic",
            "simple_data_type": "Char",
            "uri": "http://id.d4k.dk/dataset/cdisc/sdtm/v3-4/pr/prtrt"
        },
        {
            "core": "Perm",
            "ct": "C101858",
            "described_value_domain": "",
            "description": "Standardized or dictionary-derived name of PRTRT. If the codelist \"PROCEDUR\" is not used, the sponsor is expected to provide the dictionary name and version used to map the terms in the external codelist element in the Define-XML document. If an intervention term does not have a decode value, then PRDECOD will be null.",
            "label": "Standardized Procedure Name",
            "name": "PRDECOD",
            "ordinal": "10",
            "role": "Synonym Qualifier",
            "simple_data_type": "Char",
            "uri": "http://id.d4k.dk/dataset/cdisc/sdtm/v3-4/pr/prdecod"
        },
        {
            "core": "Perm",
            "ct": "",
            "described_value_domain": "",
            "description": "Used to define a category of procedure values.",
            "label": "Category",
            "name": "PRCAT",
            "ordinal": "11",
            "role": "Grouping Qualifier",
            "simple_data_type": "Char",
            "uri": "http://id.d4k.dk/dataset/cdisc/sdtm/v3-4/pr/prcat"
        },
        {
            "core": "Perm",
            "ct": "",
            "described_value_domain": "",
            "description": "Used to define a further categorization of PRCAT values.",
            "label": "Subcategory",
            "name": "PRSCAT",
            "ordinal": "12",
            "role": "Grouping Qualifier",
            "simple_data_type": "Char",
            "uri": "http://id.d4k.dk/dataset/cdisc/sdtm/v3-4/pr/prscat"
        },
        {
            "core": "Perm",
            "ct": "C66742",
            "described_value_domain": "",
            "description": "Used when a specific procedure is pre-specified on a CRF. Values should be \"Y\" or null.",
            "label": "Pre-specified",
            "name": "PRPRESP",
            "ordinal": "13",
            "role": "Variable Qualifier",
            "simple_data_type": "Char",
            "uri": "http://id.d4k.dk/dataset/cdisc/sdtm/v3-4/pr/prpresp"
        },
        {
            "core": "Perm",
            "ct": "C66742",
            "described_value_domain": "",
            "description": "Used to record whether a prespecified procedure occurred when information about the occurrence of a specific procedure is solicited.",
            "label": "Occurrence",
            "name": "PROCCUR",
            "ordinal": "14",
            "role": "Record Qualifier",
            "simple_data_type": "Char",
            "uri": "http://id.d4k.dk/dataset/cdisc/sdtm/v3-4/pr/proccur"
        },
        {
            "core": "Perm",
            "ct": "",
            "described_value_domain": "",
            "description": "Denotes the indication for the procedure (e.g., why the procedure was performed).",
            "label": "Indication",
            "name": "PRINDC",
            "ordinal": "15",
            "role": "Record Qualifier",
            "simple_data_type": "Char",
            "uri": "http://id.d4k.dk/dataset/cdisc/sdtm/v3-4/pr/prindc"
        },
        {
            "core": "Perm",
            "ct": "",
            "described_value_domain": "",
            "description": "Amount of PRTRT administered. Not populated when PRDOSTXT is populated.",
            "label": "Dose",
            "name": "PRDOSE",
            "ordinal": "16",
            "role": "Record Qualifier",
            "simple_data_type": "Num",
            "uri": "http://id.d4k.dk/dataset/cdisc/sdtm/v3-4/pr/prdose"
        },
        {
            "core": "Perm",
            "ct": "",
            "described_value_domain": "",
            "description": "Dosing information collected in text form. Examples: \"<1\", \"200-400\". Not populated when PRDOSE is populated.",
            "label": "Dose Description",
            "name": "PRDOSTXT",
            "ordinal": "17",
            "role": "Record Qualifier",
            "simple_data_type": "Char",
            "uri": "http://id.d4k.dk/dataset/cdisc/sdtm/v3-4/pr/prdostxt"
        },
        {
            "core": "Perm",
            "ct": "C71620",
            "described_value_domain": "",
            "description": "Units for PRDOSE, PRDOSTOT, or PRDOSTXT.",
            "label": "Dose Units",
            "name": "PRDOSU",
            "ordinal": "18",
            "role": "Variable Qualifier",
            "simple_data_type": "Char",
            "uri": "http://id.d4k.dk/dataset/cdisc/sdtm/v3-4/pr/prdosu"
        },
        {
            "core": "Perm",
            "ct": "C66726",
            "described_value_domain": "",
            "description": "Dose form for PRTRT.",
            "label": "Dose Form",
            "name": "PRDOSFRM",
            "ordinal": "19",
            "role": "Variable Qualifier",
            "simple_data_type": "Char",
            "uri": "http://id.d4k.dk/dataset/cdisc/sdtm/v3-4/pr/prdosfrm"
        },
        {
            "core": "Perm",
            "ct": "C71113",
            "described_value_domain": "",
            "description": "Usually expressed as the number of doses given per a specific interval.",
            "label": "Dosing Frequency per Interval",
            "name": "PRDOSFRQ",
            "ordinal": "20",
            "role": "Record Qualifier",
            "simple_data_type": "Char",
            "uri": "http://id.d4k.dk/dataset/cdisc/sdtm/v3-4/pr/prdosfrq"
        },
        {
            "core": "Perm",
            "ct": "",
            "described_value_domain": "",
            "description": "Text description of the intended schedule or regimen for the procedure.",
            "label": "Intended Dose Regimen",
            "name": "PRDOSRGM",
            "ordinal": "21",
            "role": "Record Qualifier",
            "simple_data_type": "Char",
            "uri": "http://id.d4k.dk/dataset/cdisc/sdtm/v3-4/pr/prdosrgm"
        },
        {
            "core": "Perm",
            "ct": "C66729",
            "described_value_domain": "",
            "description": "Route of administration for PRTRT.",
            "label": "Route of Administration",
            "name": "PRROUTE",
            "ordinal": "22",
            "role": "Variable Qualifier",
            "simple_data_type": "Char",
            "uri": "http://id.d4k.dk/dataset/cdisc/sdtm/v3-4/pr/prroute"
        },
        {
            "core": "Perm",
            "ct": "C74456",
            "described_value_domain": "",
            "description": "Anatomical location of a procedure.",
            "label": "Location of Procedure",
            "name": "PRLOC",
            "ordinal": "23",
            "role": "Record Qualifier",
            "simple_data_type": "Char",
            "uri": "http://id.d4k.dk/dataset/cdisc/sdtm/v3-4/pr/prloc"
        },
        {
            "core": "Perm",
            "ct": "C99073",
            "described_value_domain": "",
            "description": "Qualifier for anatomical location or specimen further detailing laterality.",
            "label": "Laterality",
            "name": "PRLAT",
            "ordinal": "24",
            "role": "Variable Qualifier",
            "simple_data_type": "Char",
            "uri": "http://id.d4k.dk/dataset/cdisc/sdtm/v3-4/pr/prlat"
        },
        {
            "core": "Perm",
            "ct": "C99074",
            "described_value_domain": "",
            "description": "Qualifier for anatomical location or specimen further detailing directionality.",
            "label": "Directionality",
            "name": "PRDIR",
            "ordinal": "25",
            "role": "Variable Qualifier",
            "simple_data_type": "Char",
            "uri": "http://id.d4k.dk/dataset/cdisc/sdtm/v3-4/pr/prdir"
        },
        {
            "core": "Perm",
            "ct": "C99075",
            "described_value_domain": "",
            "description": "Qualifier for anatomical location or specimen further detailing the distribution, which means arrangement of, apportioning of.",
            "label": "Portion or Totality",
            "name": "PRPORTOT",
            "ordinal": "26",
            "role": "Variable Qualifier",
            "simple_data_type": "Char",
            "uri": "http://id.d4k.dk/dataset/cdisc/sdtm/v3-4/pr/prportot"
        },
        {
            "core": "Perm",
            "ct": "",
            "described_value_domain": "",
            "description": "Clinical encounter number. Numeric version of VISIT, used for sorting.",
            "label": "Visit Number",
            "name": "VISITNUM",
            "ordinal": "27",
            "role": "Timing",
            "simple_data_type": "Num",
            "uri": "http://id.d4k.dk/dataset/cdisc/sdtm/v3-4/pr/visitnum"
        },
        {
            "core": "Perm",
            "ct": "",
            "described_value_domain": "",
            "description": "Protocol-defined description of a clinical encounter.",
            "label": "Visit Name",
            "name": "VISIT",
            "ordinal": "28",
            "role": "Timing",
            "simple_data_type": "Char",
            "uri": "http://id.d4k.dk/dataset/cdisc/sdtm/v3-4/pr/visit"
        },
        {
            "core": "Perm",
            "ct": "",
            "described_value_domain": "",
            "description": "Planned study day of VISIT. Should be an integer.",
            "label": "Planned Study Day of Visit",
            "name": "VISITDY",
            "ordinal": "29",
            "role": "Timing",
            "simple_data_type": "Num",
            "uri": "http://id.d4k.dk/dataset/cdisc/sdtm/v3-4/pr/visitdy"
        },
        {
            "core": "Perm",
            "ct": "",
            "described_value_domain": "",
            "description": "Number that gives the planned order of the element within the arm.",
            "label": "Planned Order of Element within Arm",
            "name": "TAETORD",
            "ordinal": "30",
            "role": "Timing",
            "simple_data_type": "Num",
            "uri": "http://id.d4k.dk/dataset/cdisc/sdtm/v3-4/pr/taetord"
        },
        {
            "core": "Perm",
            "ct": "C99079",
            "described_value_domain": "",
            "description": "Epoch associated with the start date/time of the procedure.",
            "label": "Epoch",
            "name": "EPOCH",
            "ordinal": "31",
            "role": "Timing",
            "simple_data_type": "Char",
            "uri": "http://id.d4k.dk/dataset/cdisc/sdtm/v3-4/pr/epoch"
        },
        {
            "core": "Exp",
            "ct": "",
            "described_value_domain": "ISO 8601 datetime or interval",
            "description": "Start date/time of the procedure represented in ISO 8601 character format.",
            "label": "Start Date/Time of Procedure",
            "name": "PRSTDTC",
            "ordinal": "32",
            "role": "Timing",
            "simple_data_type": "Char",
            "uri": "http://id.d4k.dk/dataset/cdisc/sdtm/v3-4/pr/prstdtc"
        },
        {
            "core": "Perm",
            "ct": "",
            "described_value_domain": "ISO 8601 datetime or interval",
            "description": "End date/time of the procedure represented in ISO 8601 character format.",
            "label": "End Date/Time of Procedure",
            "name": "PRENDTC",
            "ordinal": "33",
            "role": "Timing",
            "simple_data_type": "Char",
            "uri": "http://id.d4k.dk/dataset/cdisc/sdtm/v3-4/pr/prendtc"
        },
        {
            "core": "Perm",
            "ct": "",
            "described_value_domain": "",
            "description": "Study day of start of procedure expressed in integer days relative to the sponsor-defined RFSTDTC in Demographics.",
            "label": "Study Day of Start of Procedure",
            "name": "PRSTDY",
            "ordinal": "34",
            "role": "Timing",
            "simple_data_type": "Num",
            "uri": "http://id.d4k.dk/dataset/cdisc/sdtm/v3-4/pr/prstdy"
        },
        {
            "core": "Perm",
            "ct": "",
            "described_value_domain": "",
            "description": "Study day of end of procedure expressed in integer days relative to the sponsor-defined RFSTDTC in Demographics.",
            "label": "Study Day of End of Procedure",
            "name": "PRENDY",
            "ordinal": "35",
            "role": "Timing",
            "simple_data_type": "Num",
            "uri": "http://id.d4k.dk/dataset/cdisc/sdtm/v3-4/pr/prendy"
        },
        {
            "core": "Perm",
            "ct": "",
            "described_value_domain": "ISO 8601 duration",
            "description": "Collected duration of a procedure represented in ISO 8601 character format. Used only if collected on the CRF and not derived from start and end date/times.",
            "label": "Duration of Procedure",
            "name": "PRDUR",
            "ordinal": "36",
            "role": "Timing",
            "simple_data_type": "Char",
            "uri": "http://id.d4k.dk/dataset/cdisc/sdtm/v3-4/pr/prdur"
        },
        {
            "core": "Perm",
            "ct": "",
            "described_value_domain": "",
            "description": "Text description of time when a procedure should be performed. This may be represented as an elapsed time relative to a fixed reference point, such as time of last dose. See PRTPTNUM and PRTPTREF.",
            "label": "Planned Time Point Name",
            "name": "PRTPT",
            "ordinal": "37",
            "role": "Timing",
            "simple_data_type": "Char",
            "uri": "http://id.d4k.dk/dataset/cdisc/sdtm/v3-4/pr/prtpt"
        },
        {
            "core": "Perm",
            "ct": "",
            "described_value_domain": "",
            "description": "Numerical version of planned time point used in sorting.",
            "label": "Planned Time Point Number",
            "name": "PRTPTNUM",
            "ordinal": "38",
            "role": "Timing",
            "simple_data_type": "Num",
            "uri": "http://id.d4k.dk/dataset/cdisc/sdtm/v3-4/pr/prtptnum"
        },
        {
            "core": "Perm",
            "ct": "",
            "described_value_domain": "ISO 8601 duration",
            "description": "Planned elapsed time in ISO 8601 format relative to a planned fixed reference (PRTPTREF). This variable is useful where there are repetitive measures. Not a clock time or a date/time variable, but an interval, represented as ISO duration.",
            "label": "Planned Elapsed Time from Time Point Ref",
            "name": "PRELTM",
            "ordinal": "39",
            "role": "Timing",
            "simple_data_type": "Char",
            "uri": "http://id.d4k.dk/dataset/cdisc/sdtm/v3-4/pr/preltm"
        },
        {
            "core": "Perm",
            "ct": "",
            "described_value_domain": "",
            "description": "Description of the fixed reference point referred to by PRELTM, PRTPTNUM, and PRTPT.",
            "label": "Time Point Reference",
            "name": "PRTPTREF",
            "ordinal": "40",
            "role": "Timing",
            "simple_data_type": "Char",
            "uri": "http://id.d4k.dk/dataset/cdisc/sdtm/v3-4/pr/prtptref"
        },
        {
            "core": "Perm",
            "ct": "",
            "described_value_domain": "ISO 8601 datetime or interval",
            "description": "Date/time for a fixed reference time point defined by PRTRTREF in ISO 8601 character format.",
            "label": "Date/Time of Reference Time Point",
            "name": "PRRFTDTC",
            "ordinal": "41",
            "role": "Timing",
            "simple_data_type": "Char",
            "uri": "http://id.d4k.dk/dataset/cdisc/sdtm/v3-4/pr/prrftdtc"
        },
        {
            "core": "Perm",
            "ct": "C66728",
            "described_value_domain": "",
            "description": "Identifies the start of the observation as being before or after the sponsor-defined reference time point defined by variable PRSTTPT. \\n Not all values of the codelist are allowable for this variable. See Section 4.4.7, Use of Relative Timing Variables.",
            "label": "Start Relative to Reference Time Point",
            "name": "PRSTRTPT",
            "ordinal": "42",
            "role": "Timing",
            "simple_data_type": "Char",
            "uri": "http://id.d4k.dk/dataset/cdisc/sdtm/v3-4/pr/prstrtpt"
        },
        {
            "core": "Perm",
            "ct": "",
            "described_value_domain": "",
            "description": "Description or date/time in ISO 8601 character format of the sponsor-defined reference point referred to by PRSTRTPT. Examples: \"2003-12-15\", \"VISIT 1\".",
            "label": "Start Reference Time Point",
            "name": "PRSTTPT",
            "ordinal": "43",
            "role": "Timing",
            "simple_data_type": "Char",
            "uri": "http://id.d4k.dk/dataset/cdisc/sdtm/v3-4/pr/prsttpt"
        },
        {
            "core": "Perm",
            "ct": "C66728",
            "described_value_domain": "",
            "description": "Identifies the end of the observation as being before or after the sponsor-defined reference time point defined by variable PRENTPT. \\n Not all values of the codelist are allowable for this variable. See Section 4.4.7, Use of Relative Timing Variables.",
            "label": "End Relative to Reference Time Point",
            "name": "PRENRTPT",
            "ordinal": "44",
            "role": "Timing",
            "simple_data_type": "Char",
            "uri": "http://id.d4k.dk/dataset/cdisc/sdtm/v3-4/pr/prenrtpt"
        },
        {
            "core": "Perm",
            "ct": "",
            "described_value_domain": "",
            "description": "Description or date/time in ISO 8601 character format of the sponsor-defined reference point referred to by PRENRTPT. Examples: \"2003-12-25\", \"VISIT 2\".",
            "label": "End Reference Time Point",
            "name": "PRENTPT",
            "ordinal": "45",
            "role": "Timing",
            "simple_data_type": "Char",
            "uri": "http://id.d4k.dk/dataset/cdisc/sdtm/v3-4/pr/prentpt"
        },
        {
            "core": "Req",
            "ct": "",
            "described_value_domain": "",
            "description": "Unique identifier for a study.",
            "label": "Study Identifier",
            "name": "STUDYID",
            "ordinal": "1",
            "role": "Identifier",
            "simple_data_type": "Char",
            "uri": "http://id.d4k.dk/dataset/cdisc/sdtm/v3-4/su/studyid"
        },
        {
            "core": "Req",
            "ct": "",
            "described_value_domain": "",
            "description": "Two-character abbreviation for the domain.",
            "label": "Domain Abbreviation",
            "name": "DOMAIN",
            "ordinal": "2",
            "role": "Identifier",
            "simple_data_type": "Char",
            "uri": "http://id.d4k.dk/dataset/cdisc/sdtm/v3-4/su/domain"
        },
        {
            "core": "Req",
            "ct": "",
            "described_value_domain": "",
            "description": "Identifier used to uniquely identify a subject across all studies for all applications or submissions involving the product.",
            "label": "Unique Subject Identifier",
            "name": "USUBJID",
            "ordinal": "3",
            "role": "Identifier",
            "simple_data_type": "Char",
            "uri": "http://id.d4k.dk/dataset/cdisc/sdtm/v3-4/su/usubjid"
        },
        {
            "core": "Req",
            "ct": "",
            "described_value_domain": "",
            "description": "Sequence number given to ensure uniqueness of subject records within a domain. May be any valid number.",
            "label": "Sequence Number",
            "name": "SUSEQ",
            "ordinal": "4",
            "role": "Identifier",
            "simple_data_type": "Num",
            "uri": "http://id.d4k.dk/dataset/cdisc/sdtm/v3-4/su/suseq"
        },
        {
            "core": "Perm",
            "ct": "",
            "described_value_domain": "",
            "description": "Used to tie together a block of related records in a single domain for a subject.",
            "label": "Group ID",
            "name": "SUGRPID",
            "ordinal": "5",
            "role": "Identifier",
            "simple_data_type": "Char",
            "uri": "http://id.d4k.dk/dataset/cdisc/sdtm/v3-4/su/sugrpid"
        },
        {
            "core": "Perm",
            "ct": "",
            "described_value_domain": "",
            "description": "Sponsor-defined reference number. May be preprinted on the CRF as an explicit line identifier or defined in the sponsor's operational database. Example: Line number on a Tobacco & Alcohol Use CRF page.",
            "label": "Sponsor-Defined Identifier",
            "name": "SUSPID",
            "ordinal": "6",
            "role": "Identifier",
            "simple_data_type": "Char",
            "uri": "http://id.d4k.dk/dataset/cdisc/sdtm/v3-4/su/suspid"
        },
        {
            "core": "Req",
            "ct": "",
            "described_value_domain": "",
            "description": "Substance name. Examples: \"CIGARETTES\", \"COFFEE\".",
            "label": "Reported Name of Substance",
            "name": "SUTRT",
            "ordinal": "7",
            "role": "Topic",
            "simple_data_type": "Char",
            "uri": "http://id.d4k.dk/dataset/cdisc/sdtm/v3-4/su/sutrt"
        },
        {
            "core": "Perm",
            "ct": "",
            "described_value_domain": "",
            "description": "If SUTRT is modified, then the modified text is placed here.",
            "label": "Modified Substance Name",
            "name": "SUMODIFY",
            "ordinal": "8",
            "role": "Synonym Qualifier",
            "simple_data_type": "Char",
            "uri": "http://id.d4k.dk/dataset/cdisc/sdtm/v3-4/su/sumodify"
        },
        {
            "core": "Perm",
            "ct": "",
            "described_value_domain": "",
            "description": "Standardized or dictionary-derived text description of SUTRT or SUMODIFY if the sponsor chooses to code the substance use. The sponsor is expected to provide the dictionary name and version used to map the terms utilizing the external codelist element in the Define-XML document.",
            "label": "Standardized Substance Name",
            "name": "SUDECOD",
            "ordinal": "9",
            "role": "Synonym Qualifier",
            "simple_data_type": "Char",
            "uri": "http://id.d4k.dk/dataset/cdisc/sdtm/v3-4/su/sudecod"
        },
        {
            "core": "Perm",
            "ct": "",
            "described_value_domain": "",
            "description": "Used to define a category of related records. Examples: \"TOBACCO\", \"ALCOHOL\", or \"CAFFEINE\".",
            "label": "Category for Substance Use",
            "name": "SUCAT",
            "ordinal": "10",
            "role": "Grouping Qualifier",
            "simple_data_type": "Char",
            "uri": "http://id.d4k.dk/dataset/cdisc/sdtm/v3-4/su/sucat"
        },
        {
            "core": "Perm",
            "ct": "",
            "described_value_domain": "",
            "description": "A further categorization of substance use. Examples: \"CIGARS\", \"CIGARETTES\", \"BEER\", \"WINE\".",
            "label": "Subcategory for Substance Use",
            "name": "SUSCAT",
            "ordinal": "11",
            "role": "Grouping Qualifier",
            "simple_data_type": "Char",
            "uri": "http://id.d4k.dk/dataset/cdisc/sdtm/v3-4/su/suscat"
        },
        {
            "core": "Perm",
            "ct": "C66742",
            "described_value_domain": "",
            "description": "Used to indicate whether (\"Y\"/null) information about the use of a specific substance was solicited on the CRF.",
            "label": "SU Pre-Specified",
            "name": "SUPRESP",
            "ordinal": "12",
            "role": "Variable Qualifier",
            "simple_data_type": "Char",
            "uri": "http://id.d4k.dk/dataset/cdisc/sdtm/v3-4/su/supresp"
        },
        {
            "core": "Perm",
            "ct": "C66742",
            "described_value_domain": "",
            "description": "When the use of specific substances is solicited, SUOCCUR is used to indicate whether (\"Y\"/\"N\") a particular prespecified substance was used. Values are null for substances not specifically solicited.",
            "label": "SU Occurrence",
            "name": "SUOCCUR",
            "ordinal": "13",
            "role": "Record Qualifier",
            "simple_data_type": "Char",
            "uri": "http://id.d4k.dk/dataset/cdisc/sdtm/v3-4/su/suoccur"
        },
        {
            "core": "Perm",
            "ct": "C66789",
            "described_value_domain": "",
            "description": "When the use of prespecified substances is solicited, the completion status indicates that there was no response to the question about the prespecified substance. When there is no prespecified list on the CRF, then the completion status indicates that substance use was not assessed for the subject.",
            "label": "Completion Status",
            "name": "SUSTAT",
            "ordinal": "14",
            "role": "Record Qualifier",
            "simple_data_type": "Char",
            "uri": "http://id.d4k.dk/dataset/cdisc/sdtm/v3-4/su/sustat"
        },
        {
            "core": "Perm",
            "ct": "",
            "described_value_domain": "",
            "description": "Describes the reason substance use was not collected. Used in conjunction with SUSTAT when value of SUSTAT is \"NOT DONE\".",
            "label": "Reason Substance Use Not Collected",
            "name": "SUREASND",
            "ordinal": "15",
            "role": "Record Qualifier",
            "simple_data_type": "Char",
            "uri": "http://id.d4k.dk/dataset/cdisc/sdtm/v3-4/su/sureasnd"
        },
        {
            "core": "Perm",
            "ct": "",
            "described_value_domain": "",
            "description": "Substance use class. May be obtained from coding. When coding to a single class, populate with class value. If using a dictionary and coding to multiple classes, then follow Section 4.2.8.3, Multiple Values for a Non-result Qualifier Variable, or omit SUCLAS.",
            "label": "Substance Use Class",
            "name": "SUCLAS",
            "ordinal": "16",
            "role": "Variable Qualifier",
            "simple_data_type": "Char",
            "uri": "http://id.d4k.dk/dataset/cdisc/sdtm/v3-4/su/suclas"
        },
        {
            "core": "Perm",
            "ct": "",
            "described_value_domain": "",
            "description": "Code corresponding to SUCLAS. May be obtained from coding.",
            "label": "Substance Use Class Code",
            "name": "SUCLASCD",
            "ordinal": "17",
            "role": "Variable Qualifier",
            "simple_data_type": "Char",
            "uri": "http://id.d4k.dk/dataset/cdisc/sdtm/v3-4/su/suclascd"
        },
        {
            "core": "Perm",
            "ct": "",
            "described_value_domain": "",
            "description": "Amount of SUTRT consumed. Not populated if SUDOSTXT is populated.",
            "label": "Substance Use Consumption",
            "name": "SUDOSE",
            "ordinal": "18",
            "role": "Record Qualifier",
            "simple_data_type": "Num",
            "uri": "http://id.d4k.dk/dataset/cdisc/sdtm/v3-4/su/sudose"
        },
        {
            "core": "Perm",
            "ct": "",
            "described_value_domain": "",
            "description": "Substance use consumption amounts or a range of consumption information collected in text form. Not populated if SUDOSE is populated.",
            "label": "Substance Use Consumption Text",
            "name": "SUDOSTXT",
            "ordinal": "19",
            "role": "Record Qualifier",
            "simple_data_type": "Char",
            "uri": "http://id.d4k.dk/dataset/cdisc/sdtm/v3-4/su/sudostxt"
        },
        {
            "core": "Perm",
            "ct": "C71620",
            "described_value_domain": "",
            "description": "Units for SUDOSE, SUDOSTOT, or SUDOSTXT. Examples: \"oz\", \"CIGARETTE\", \"PACK\", \"g\".",
            "label": "Consumption Units",
            "name": "SUDOSU",
            "ordinal": "20",
            "role": "Variable Qualifier",
            "simple_data_type": "Char",
            "uri": "http://id.d4k.dk/dataset/cdisc/sdtm/v3-4/su/sudosu"
        },
        {
            "core": "Perm",
            "ct": "C66726",
            "described_value_domain": "",
            "description": "Dose form for SUTRT. Examples: \"INJECTABLE\", \"LIQUID\", \"POWDER\".",
            "label": "Dose Form",
            "name": "SUDOSFRM",
            "ordinal": "21",
            "role": "Variable Qualifier",
            "simple_data_type": "Char",
            "uri": "http://id.d4k.dk/dataset/cdisc/sdtm/v3-4/su/sudosfrm"
        },
        {
            "core": "Perm",
            "ct": "C71113",
            "described_value_domain": "",
            "description": "Usually expressed as the number of repeated administrations of SUDOSE within a specific time period. Example: \"Q24H\" (every day).",
            "label": "Use Frequency Per Interval",
            "name": "SUDOSFRQ",
            "ordinal": "22",
            "role": "Variable Qualifier",
            "simple_data_type": "Char",
            "uri": "http://id.d4k.dk/dataset/cdisc/sdtm/v3-4/su/sudosfrq"
        },
        {
            "core": "Perm",
            "ct": "",
            "described_value_domain": "",
            "description": "Total daily use of SUTRT using the units in SUDOSU. Used when dosing is collected as total daily dose. If a sponsor needs to aggregate the data over a period other than daily, then the aggregated total could be recorded in a supplemental qualifier variable.",
            "label": "Total Daily Consumption",
            "name": "SUDOSTOT",
            "ordinal": "23",
            "role": "Record Qualifier",
            "simple_data_type": "Num",
            "uri": "http://id.d4k.dk/dataset/cdisc/sdtm/v3-4/su/sudostot"
        },
        {
            "core": "Perm",
            "ct": "C66729",
            "described_value_domain": "",
            "description": "Route of administration for SUTRT. Examples: \"ORAL\", \"INTRAVENOUS\".",
            "label": "Route of Administration",
            "name": "SUROUTE",
            "ordinal": "24",
            "role": "Variable Qualifier",
            "simple_data_type": "Char",
            "uri": "http://id.d4k.dk/dataset/cdisc/sdtm/v3-4/su/suroute"
        },
        {
            "core": "Perm",
            "ct": "",
            "described_value_domain": "",
            "description": "Number that gives the planned order of the element within the arm for the element in which the substance use started. Null for substances that started before study participation.",
            "label": "Planned Order of Element within Arm",
            "name": "TAETORD",
            "ordinal": "25",
            "role": "Timing",
            "simple_data_type": "Num",
            "uri": "http://id.d4k.dk/dataset/cdisc/sdtm/v3-4/su/taetord"
        },
        {
            "core": "Perm",
            "ct": "C99079",
            "described_value_domain": "",
            "description": "Epoch associated with the start date/time of the substance use. Null for substances that started before study participation.",
            "label": "Epoch",
            "name": "EPOCH",
            "ordinal": "26",
            "role": "Timing",
            "simple_data_type": "Char",
            "uri": "http://id.d4k.dk/dataset/cdisc/sdtm/v3-4/su/epoch"
        },
        {
            "core": "Perm",
            "ct": "",
            "described_value_domain": "ISO 8601 datetime or interval",
            "description": "Start date/time of the substance use represented in ISO 8601 character format.",
            "label": "Start Date/Time of Substance Use",
            "name": "SUSTDTC",
            "ordinal": "27",
            "role": "Timing",
            "simple_data_type": "Char",
            "uri": "http://id.d4k.dk/dataset/cdisc/sdtm/v3-4/su/sustdtc"
        },
        {
            "core": "Perm",
            "ct": "",
            "described_value_domain": "ISO 8601 datetime or interval",
            "description": "End date/time of the substance use represented in ISO 8601 character format.",
            "label": "End Date/Time of Substance Use",
            "name": "SUENDTC",
            "ordinal": "28",
            "role": "Timing",
            "simple_data_type": "Char",
            "uri": "http://id.d4k.dk/dataset/cdisc/sdtm/v3-4/su/suendtc"
        },
        {
            "core": "Perm",
            "ct": "",
            "described_value_domain": "",
            "description": "Study day of start of substance use relative to the sponsor-defined RFSTDTC.",
            "label": "Study Day of Start of Substance Use",
            "name": "SUSTDY",
            "ordinal": "29",
            "role": "Timing",
            "simple_data_type": "Num",
            "uri": "http://id.d4k.dk/dataset/cdisc/sdtm/v3-4/su/sustdy"
        },
        {
            "core": "Perm",
            "ct": "",
            "described_value_domain": "",
            "description": "Study day of end of substance use relative to the sponsor-defined RFSTDTC.",
            "label": "Study Day of End of Substance Use",
            "name": "SUENDY",
            "ordinal": "30",
            "role": "Timing",
            "simple_data_type": "Num",
            "uri": "http://id.d4k.dk/dataset/cdisc/sdtm/v3-4/su/suendy"
        },
        {
            "core": "Perm",
            "ct": "",
            "described_value_domain": "ISO 8601 duration",
            "description": "Collected duration of substance use in ISO 8601 format. Used only if collected on the CRF and not derived from start and end date/times.",
            "label": "Duration of Substance Use",
            "name": "SUDUR",
            "ordinal": "31",
            "role": "Timing",
            "simple_data_type": "Char",
            "uri": "http://id.d4k.dk/dataset/cdisc/sdtm/v3-4/su/sudur"
        },
        {
            "core": "Perm",
            "ct": "C66728",
            "described_value_domain": "",
            "description": "Describes the start of the substance use relative to the sponsor-defined reference period. The sponsor-defined reference period is a continuous period of time defined by a discrete starting point and a discrete ending point (represented by RFSTDTC and RFENDTC in Demographics). If information such as \"PRIOR\" was collected, this information may be translated into SUSTRF. \\n Not all values of the codelist are allowable for this variable. See Section 4.4.7, Use of Relative Timing Variables.",
            "label": "Start Relative to Reference Period",
            "name": "SUSTRF",
            "ordinal": "32",
            "role": "Timing",
            "simple_data_type": "Char",
            "uri": "http://id.d4k.dk/dataset/cdisc/sdtm/v3-4/su/sustrf"
        },
        {
            "core": "Perm",
            "ct": "C66728",
            "described_value_domain": "",
            "description": "Describes the end of the substance use with relative to the sponsor-defined reference period. The sponsor-defined reference period is a continuous period of time defined by a discrete starting point and a discrete ending point (represented by RFSTDTC and RFENDTC in Demographics). If information such as \"PRIOR\", \"ONGOING\", or \"CONTINUING\" was collected, this information may be translated into SUENRF. \\n Not all values of the codelist are allowable for this variable. See Section 4.4.7, Use of Relative Timing Variables.",
            "label": "End Relative to Reference Period",
            "name": "SUENRF",
            "ordinal": "33",
            "role": "Timing",
            "simple_data_type": "Char",
            "uri": "http://id.d4k.dk/dataset/cdisc/sdtm/v3-4/su/suenrf"
        },
        {
            "core": "Perm",
            "ct": "C66728",
            "described_value_domain": "",
            "description": "Identifies the start of the substance as being before or after the reference time point defined by variable SUSTTPT. \\n Not all values of the codelist are allowable for this variable. See Section 4.4.7 , Use of Relative Timing Variables.",
            "label": "Start Relative to Reference Time Point",
            "name": "SUSTRTPT",
            "ordinal": "34",
            "role": "Timing",
            "simple_data_type": "Char",
            "uri": "http://id.d4k.dk/dataset/cdisc/sdtm/v3-4/su/sustrtpt"
        },
        {
            "core": "Perm",
            "ct": "",
            "described_value_domain": "",
            "description": "Description or date/time in ISO 8601 character format of the reference point referred to by SUSTRTPT. Examples: \"2003-12-15\", \"VISIT 1\".",
            "label": "Start Reference Time Point",
            "name": "SUSTTPT",
            "ordinal": "35",
            "role": "Timing",
            "simple_data_type": "Char",
            "uri": "http://id.d4k.dk/dataset/cdisc/sdtm/v3-4/su/susttpt"
        },
        {
            "core": "Perm",
            "ct": "C66728",
            "described_value_domain": "",
            "description": "Identifies the end of the substance as being before or after the reference time point defined by variable SUENTPT. \\n Not all values of the codelist are allowable for this variable. See Section 4.4.7 , Use of Relative Timing Variables.",
            "label": "End Relative to Reference Time Point",
            "name": "SUENRTPT",
            "ordinal": "36",
            "role": "Timing",
            "simple_data_type": "Char",
            "uri": "http://id.d4k.dk/dataset/cdisc/sdtm/v3-4/su/suenrtpt"
        },
        {
            "core": "Perm",
            "ct": "",
            "described_value_domain": "",
            "description": "Description or date/time in ISO 8601 character format of the reference point referred to by SUENRTPT. Examples: \"2003-12-25\", \"VISIT 2\".",
            "label": "End Reference Time Point",
            "name": "SUENTPT",
            "ordinal": "37",
            "role": "Timing",
            "simple_data_type": "Char",
            "uri": "http://id.d4k.dk/dataset/cdisc/sdtm/v3-4/su/suentpt"
        },
        {
            "core": "Req",
            "ct": "",
            "described_value_domain": "",
            "description": "Unique identifier for a study.",
            "label": "Study Identifier",
            "name": "STUDYID",
            "ordinal": "1",
            "role": "Identifier",
            "simple_data_type": "Char",
            "uri": "http://id.d4k.dk/dataset/cdisc/sdtm/v3-4/ae/studyid"
        },
        {
            "core": "Req",
            "ct": "",
            "described_value_domain": "",
            "description": "Two-character abbreviation for the domain.",
            "label": "Domain Abbreviation",
            "name": "DOMAIN",
            "ordinal": "2",
            "role": "Identifier",
            "simple_data_type": "Char",
            "uri": "http://id.d4k.dk/dataset/cdisc/sdtm/v3-4/ae/domain"
        },
        {
            "core": "Req",
            "ct": "",
            "described_value_domain": "",
            "description": "Identifier used to uniquely identify a subject across all studies for all applications or submissions involving the product.",
            "label": "Unique Subject Identifier",
            "name": "USUBJID",
            "ordinal": "3",
            "role": "Identifier",
            "simple_data_type": "Char",
            "uri": "http://id.d4k.dk/dataset/cdisc/sdtm/v3-4/ae/usubjid"
        },
        {
            "core": "Perm",
            "ct": "",
            "described_value_domain": "",
            "description": "A sequence of characters used by the sponsor to uniquely identify a specific device. Used to represent a device associated in some way with the adverse event. SPDEVID values are defined in the Device Identifiers (DI) domain.",
            "label": "Sponsor Device Identifier",
            "name": "SPDEVID",
            "ordinal": "4",
            "role": "Identifier",
            "simple_data_type": "Char",
            "uri": "http://id.d4k.dk/dataset/cdisc/sdtm/v3-4/ae/spdevid"
        },
        {
            "core": "Req",
            "ct": "",
            "described_value_domain": "",
            "description": "Sequence number given to ensure uniqueness of subject records within a domain. May be any valid number.",
            "label": "Sequence Number",
            "name": "AESEQ",
            "ordinal": "5",
            "role": "Identifier",
            "simple_data_type": "Num",
            "uri": "http://id.d4k.dk/dataset/cdisc/sdtm/v3-4/ae/aeseq"
        },
        {
            "core": "Perm",
            "ct": "",
            "described_value_domain": "",
            "description": "Used to tie together a block of related records in a single domain for a subject.",
            "label": "Group ID",
            "name": "AEGRPID",
            "ordinal": "6",
            "role": "Identifier",
            "simple_data_type": "Char",
            "uri": "http://id.d4k.dk/dataset/cdisc/sdtm/v3-4/ae/aegrpid"
        },
        {
            "core": "Perm",
            "ct": "",
            "described_value_domain": "",
            "description": "Internal or external identifier such as a serial number on an SAE reporting form.",
            "label": "Reference ID",
            "name": "AEREFID",
            "ordinal": "7",
            "role": "Identifier",
            "simple_data_type": "Char",
            "uri": "http://id.d4k.dk/dataset/cdisc/sdtm/v3-4/ae/aerefid"
        },
        {
            "core": "Perm",
            "ct": "",
            "described_value_domain": "",
            "description": "Sponsor-defined identifier. It may be preprinted on the CRF as an explicit line identifier or defined in the sponsor's operational database. Example: Line number on an Adverse Events CRF page.",
            "label": "Sponsor-Defined Identifier",
            "name": "AESPID",
            "ordinal": "8",
            "role": "Identifier",
            "simple_data_type": "Char",
            "uri": "http://id.d4k.dk/dataset/cdisc/sdtm/v3-4/ae/aespid"
        },
        {
            "core": "Req",
            "ct": "",
            "described_value_domain": "",
            "description": "Verbatim name of the event.",
            "label": "Reported Term for the Adverse Event",
            "name": "AETERM",
            "ordinal": "9",
            "role": "Topic",
            "simple_data_type": "Char",
            "uri": "http://id.d4k.dk/dataset/cdisc/sdtm/v3-4/ae/aeterm"
        },
        {
            "core": "Perm",
            "ct": "",
            "described_value_domain": "",
            "description": "If AETERM is modified to facilitate coding, then AEMODIFY will contain the modified text.",
            "label": "Modified Reported Term",
            "name": "AEMODIFY",
            "ordinal": "10",
            "role": "Synonym Qualifier",
            "simple_data_type": "Char",
            "uri": "http://id.d4k.dk/dataset/cdisc/sdtm/v3-4/ae/aemodify"
        },
        {
            "core": "Exp",
            "ct": "",
            "described_value_domain": "MedDRA",
            "description": "Dictionary-derived text description of the lowest level term.",
            "label": "Lowest Level Term",
            "name": "AELLT",
            "ordinal": "11",
            "role": "Variable Qualifier",
            "simple_data_type": "Char",
            "uri": "http://id.d4k.dk/dataset/cdisc/sdtm/v3-4/ae/aellt"
        },
        {
            "core": "Exp",
            "ct": "",
            "described_value_domain": "MedDRA",
            "description": "Dictionary-derived code for the lowest level term.",
            "label": "Lowest Level Term Code",
            "name": "AELLTCD",
            "ordinal": "12",
            "role": "Variable Qualifier",
            "simple_data_type": "Num",
            "uri": "http://id.d4k.dk/dataset/cdisc/sdtm/v3-4/ae/aelltcd"
        },
        {
            "core": "Req",
            "ct": "",
            "described_value_domain": "MedDRA",
            "description": "Dictionary-derived text description of AETERM or AEMODIFY. Equivalent to the Preferred Term (PT in MedDRA). The sponsor is expected to provide the dictionary name and version used to map the terms utilizing the external codelist element in the Define-XML document.",
            "label": "Dictionary-Derived Term",
            "name": "AEDECOD",
            "ordinal": "13",
            "role": "Synonym Qualifier",
            "simple_data_type": "Char",
            "uri": "http://id.d4k.dk/dataset/cdisc/sdtm/v3-4/ae/aedecod"
        },
        {
            "core": "Exp",
            "ct": "",
            "described_value_domain": "MedDRA",
            "description": "Dictionary-derived code for the preferred term.",
            "label": "Preferred Term Code",
            "name": "AEPTCD",
            "ordinal": "14",
            "role": "Variable Qualifier",
            "simple_data_type": "Num",
            "uri": "http://id.d4k.dk/dataset/cdisc/sdtm/v3-4/ae/aeptcd"
        },
        {
            "core": "Exp",
            "ct": "",
            "described_value_domain": "MedDRA",
            "description": "Dictionary-derived text description of the high level term for the primary system organ class (SOC).",
            "label": "High Level Term",
            "name": "AEHLT",
            "ordinal": "15",
            "role": "Variable Qualifier",
            "simple_data_type": "Char",
            "uri": "http://id.d4k.dk/dataset/cdisc/sdtm/v3-4/ae/aehlt"
        },
        {
            "core": "Exp",
            "ct": "",
            "described_value_domain": "MedDRA",
            "description": "Dictionary-derived code for the high level term for the primary SOC.",
            "label": "High Level Term Code",
            "name": "AEHLTCD",
            "ordinal": "16",
            "role": "Variable Qualifier",
            "simple_data_type": "Num",
            "uri": "http://id.d4k.dk/dataset/cdisc/sdtm/v3-4/ae/aehltcd"
        },
        {
            "core": "Exp",
            "ct": "",
            "described_value_domain": "MedDRA",
            "description": "Dictionary-derived text description of the high level group term for the primary SOC.",
            "label": "High Level Group Term",
            "name": "AEHLGT",
            "ordinal": "17",
            "role": "Variable Qualifier",
            "simple_data_type": "Char",
            "uri": "http://id.d4k.dk/dataset/cdisc/sdtm/v3-4/ae/aehlgt"
        },
        {
            "core": "Exp",
            "ct": "",
            "described_value_domain": "MedDRA",
            "description": "Dictionary-derived code for the high level group term for the primary SOC.",
            "label": "High Level Group Term Code",
            "name": "AEHLGTCD",
            "ordinal": "18",
            "role": "Variable Qualifier",
            "simple_data_type": "Num",
            "uri": "http://id.d4k.dk/dataset/cdisc/sdtm/v3-4/ae/aehlgtcd"
        },
        {
            "core": "Perm",
            "ct": "",
            "described_value_domain": "",
            "description": "Used to define a category of related records. Examples: \"BLEEDING\", \"NEUROPSYCHIATRIC\".",
            "label": "Category for Adverse Event",
            "name": "AECAT",
            "ordinal": "19",
            "role": "Grouping Qualifier",
            "simple_data_type": "Char",
            "uri": "http://id.d4k.dk/dataset/cdisc/sdtm/v3-4/ae/aecat"
        },
        {
            "core": "Perm",
            "ct": "",
            "described_value_domain": "",
            "description": "A further categorization of adverse event. Example: \"NEUROLOGIC\".",
            "label": "Subcategory for Adverse Event",
            "name": "AESCAT",
            "ordinal": "20",
            "role": "Grouping Qualifier",
            "simple_data_type": "Char",
            "uri": "http://id.d4k.dk/dataset/cdisc/sdtm/v3-4/ae/aescat"
        },
        {
            "core": "Perm",
            "ct": "C66742",
            "described_value_domain": "",
            "description": "A value of \"Y\" indicates that this adverse event was prespecified on the CRF. Values are null for spontaneously reported events (i.e., those collected as free-text verbatim terms).",
            "label": "Pre-Specified Adverse Event",
            "name": "AEPRESP",
            "ordinal": "21",
            "role": "Variable Qualifier",
            "simple_data_type": "Char",
            "uri": "http://id.d4k.dk/dataset/cdisc/sdtm/v3-4/ae/aepresp"
        },
        {
            "core": "Exp",
            "ct": "",
            "described_value_domain": "",
            "description": "Dictionary derived. Body system or organ class used by the sponsor from the coding dictionary (e.g., MedDRA). When using a multi-axial dictionary such as MedDRA, this should contain the SOC used for the sponsor's analyses and summary tables, which may not necessarily be the primary SOC.",
            "label": "Body System or Organ Class",
            "name": "AEBODSYS",
            "ordinal": "22",
            "role": "Record Qualifier",
            "simple_data_type": "Char",
            "uri": "http://id.d4k.dk/dataset/cdisc/sdtm/v3-4/ae/aebodsys"
        },
        {
            "core": "Exp",
            "ct": "",
            "described_value_domain": "MedDRA",
            "description": "Dictionary derived. Code for the body system or organ class used by the sponsor. When using a multi-axial dictionary such as MedDRA, this should contain the SOC used for the sponsor's analyses and summary tables, which may not necessarily be the primary SOC.",
            "label": "Body System or Organ Class Code",
            "name": "AEBDSYCD",
            "ordinal": "23",
            "role": "Variable Qualifier",
            "simple_data_type": "Num",
            "uri": "http://id.d4k.dk/dataset/cdisc/sdtm/v3-4/ae/aebdsycd"
        },
        {
            "core": "Exp",
            "ct": "",
            "described_value_domain": "MedDRA",
            "description": "Dictionary-derived text description of the primary SOC. Will be the same as AEBODSYS if the primary SOC was used for analysis.",
            "label": "Primary System Organ Class",
            "name": "AESOC",
            "ordinal": "24",
            "role": "Variable Qualifier",
            "simple_data_type": "Char",
            "uri": "http://id.d4k.dk/dataset/cdisc/sdtm/v3-4/ae/aesoc"
        },
        {
            "core": "Exp",
            "ct": "",
            "described_value_domain": "MedDRA",
            "description": "Dictionary-derived code for the primary SOC. Will be the same as AEBDSYCD if the primary SOC was used for analysis.",
            "label": "Primary System Organ Class Code",
            "name": "AESOCCD",
            "ordinal": "25",
            "role": "Variable Qualifier",
            "simple_data_type": "Num",
            "uri": "http://id.d4k.dk/dataset/cdisc/sdtm/v3-4/ae/aesoccd"
        },
        {
            "core": "Perm",
            "ct": "C74456",
            "described_value_domain": "",
            "description": "Describes anatomical location relevant for the event (e.g., \"ARM\" for skin rash).",
            "label": "Location of Event",
            "name": "AELOC",
            "ordinal": "26",
            "role": "Record Qualifier",
            "simple_data_type": "Char",
            "uri": "http://id.d4k.dk/dataset/cdisc/sdtm/v3-4/ae/aeloc"
        },
        {
            "core": "Perm",
            "ct": "C66769",
            "described_value_domain": "",
            "description": "The severity or intensity of the event. Examples: \"MILD\", \"MODERATE\", \"SEVERE\".",
            "label": "Severity/Intensity",
            "name": "AESEV",
            "ordinal": "27",
            "role": "Record Qualifier",
            "simple_data_type": "Char",
            "uri": "http://id.d4k.dk/dataset/cdisc/sdtm/v3-4/ae/aesev"
        },
        {
            "core": "Exp",
            "ct": "C66742",
            "described_value_domain": "",
            "description": "Is this a serious event? Valid values are \"Y\" and \"N\".",
            "label": "Serious Event",
            "name": "AESER",
            "ordinal": "28",
            "role": "Record Qualifier",
            "simple_data_type": "Char",
            "uri": "http://id.d4k.dk/dataset/cdisc/sdtm/v3-4/ae/aeser"
        },
        {
            "core": "Exp",
            "ct": "C66767",
            "described_value_domain": "",
            "description": "Describes changes to the study treatment as a result of the event. AEACN is specifically for the relationship to study treatment. AEACNOTH is for actions unrelated to dose adjustments of study treatment. Examples of AEACN values include ICH E2B values: \"DRUG WITHDRAWN\", \"DOSE REDUCED\", \"DOSE INCREASED\", \"DOSE NOT CHANGED\", \"UNKNOWN\" and \"NOT APPLICABLE\".",
            "label": "Action Taken with Study Treatment",
            "name": "AEACN",
            "ordinal": "29",
            "role": "Record Qualifier",
            "simple_data_type": "Char",
            "uri": "http://id.d4k.dk/dataset/cdisc/sdtm/v3-4/ae/aeacn"
        },
        {
            "core": "Perm",
            "ct": "",
            "described_value_domain": "",
            "description": "Describes other actions taken as a result of the event that are unrelated to dose adjustments of study treatment. Usually reported as free text. Example: \"TREATMENT UNBLINDED. PRIMARY CARE PHYSICIAN NOTIFIED\".",
            "label": "Other Action Taken",
            "name": "AEACNOTH",
            "ordinal": "30",
            "role": "Record Qualifier",
            "simple_data_type": "Char",
            "uri": "http://id.d4k.dk/dataset/cdisc/sdtm/v3-4/ae/aeacnoth"
        },
        {
            "core": "Perm",
            "ct": "C111110",
            "described_value_domain": "",
            "description": "An action taken with a device as the result of the event. The device may or may not be a device under study.",
            "label": "Action Taken with Device",
            "name": "AEACNDEV",
            "ordinal": "31",
            "role": "Record Qualifier",
            "simple_data_type": "Char",
            "uri": "http://id.d4k.dk/dataset/cdisc/sdtm/v3-4/ae/aeacndev"
        },
        {
            "core": "Exp",
            "ct": "",
            "described_value_domain": "",
            "description": "Records the investigator's opinion as to the causality of the event to the treatment. ICH does not establish any required or recommended terms for non-device relatedness. ICH E2A and E2B examples include (up-cased here for alignment to SDTM conventions) terms such as \"NOT RELATED\", \"UNLIKELY RELATED\", \"POSSIBLY RELATED\", \"RELATED\", but these example terms do not establish any conventions or expectations. Controlled terminology may be defined in the future. Check with regulatory authority for population of this variable.",
            "label": "Causality",
            "name": "AEREL",
            "ordinal": "32",
            "role": "Record Qualifier",
            "simple_data_type": "Char",
            "uri": "http://id.d4k.dk/dataset/cdisc/sdtm/v3-4/ae/aerel"
        },
        {
            "core": "Perm",
            "ct": "",
            "described_value_domain": "",
            "description": "A judgment as to the likelihood that the device caused the adverse event. The relationship is to a device identified in the data (i.e., has an SPDEVID). The device may be ancillary or under study. \\n Terminology: \\n * In the EU, follow the European Commission Guidelines on Medical Devices, Clinical Investigations: SAE Reporting (MEDDEV 2.7/3) (e.g., Not Related, Unlikely, Possible, Probable, Causal Relationship), with device-specific definitions. \\n * No required Controlled Terminology in US.",
            "label": "Relationship of Event to Device",
            "name": "AERLDEV",
            "ordinal": "33",
            "role": "Record Qualifier",
            "simple_data_type": "Char",
            "uri": "http://id.d4k.dk/dataset/cdisc/sdtm/v3-4/ae/aerldev"
        },
        {
            "core": "Perm",
            "ct": "",
            "described_value_domain": "",
            "description": "Records the investigator's opinion as to whether the event may have been due to a treatment other than study drug. May be reported as free text. Example: \"MORE LIKELY RELATED TO ASPIRIN USE\".",
            "label": "Relationship to Non-Study Treatment",
            "name": "AERELNST",
            "ordinal": "34",
            "role": "Record Qualifier",
            "simple_data_type": "Char",
            "uri": "http://id.d4k.dk/dataset/cdisc/sdtm/v3-4/ae/aerelnst"
        },
        {
            "core": "Perm",
            "ct": "",
            "described_value_domain": "",
            "description": "Used to indicate the pattern of the event over time. Examples: \"INTERMITTENT\", \"CONTINUOUS\", \"SINGLE EVENT\".",
            "label": "Pattern of Adverse Event",
            "name": "AEPATT",
            "ordinal": "35",
            "role": "Record Qualifier",
            "simple_data_type": "Char",
            "uri": "http://id.d4k.dk/dataset/cdisc/sdtm/v3-4/ae/aepatt"
        },
        {
            "core": "Perm",
            "ct": "C66768",
            "described_value_domain": "",
            "description": "Description of the outcome of an event.",
            "label": "Outcome of Adverse Event",
            "name": "AEOUT",
            "ordinal": "36",
            "role": "Record Qualifier",
            "simple_data_type": "Char",
            "uri": "http://id.d4k.dk/dataset/cdisc/sdtm/v3-4/ae/aeout"
        },
        {
            "core": "Perm",
            "ct": "C66742",
            "described_value_domain": "",
            "description": "Was the serious event associated with the development of cancer? Valid values are \"Y\" and \"N\". This is a legacy seriousness criterion. It is not included in ICH E2A or E2B.",
            "label": "Involves Cancer",
            "name": "AESCAN",
            "ordinal": "37",
            "role": "Record Qualifier",
            "simple_data_type": "Char",
            "uri": "http://id.d4k.dk/dataset/cdisc/sdtm/v3-4/ae/aescan"
        },
        {
            "core": "Perm",
            "ct": "C66742",
            "described_value_domain": "",
            "description": "Was the serious event associated with congenital anomaly or birth defect? Valid values are \"Y\" and \"N\".",
            "label": "Congenital Anomaly or Birth Defect",
            "name": "AESCONG",
            "ordinal": "38",
            "role": "Record Qualifier",
            "simple_data_type": "Char",
            "uri": "http://id.d4k.dk/dataset/cdisc/sdtm/v3-4/ae/aescong"
        },
        {
            "core": "Perm",
            "ct": "C66742",
            "described_value_domain": "",
            "description": "Did the serious event result in persistent or significant disability/incapacity? Valid values are \"Y\" and \"N\".",
            "label": "Persist or Signif Disability/Incapacity",
            "name": "AESDISAB",
            "ordinal": "39",
            "role": "Record Qualifier",
            "simple_data_type": "Char",
            "uri": "http://id.d4k.dk/dataset/cdisc/sdtm/v3-4/ae/aesdisab"
        },
        {
            "core": "Perm",
            "ct": "C66742",
            "described_value_domain": "",
            "description": "Did the serious event result in death? Valid values are \"Y\" and \"N\".",
            "label": "Results in Death",
            "name": "AESDTH",
            "ordinal": "40",
            "role": "Record Qualifier",
            "simple_data_type": "Char",
            "uri": "http://id.d4k.dk/dataset/cdisc/sdtm/v3-4/ae/aesdth"
        },
        {
            "core": "Perm",
            "ct": "C66742",
            "described_value_domain": "",
            "description": "Did the serious event require or prolong hospitalization? Valid values are \"Y\" and \"N\".",
            "label": "Requires or Prolongs Hospitalization",
            "name": "AESHOSP",
            "ordinal": "41",
            "role": "Record Qualifier",
            "simple_data_type": "Char",
            "uri": "http://id.d4k.dk/dataset/cdisc/sdtm/v3-4/ae/aeshosp"
        },
        {
            "core": "Perm",
            "ct": "C66742",
            "described_value_domain": "",
            "description": "Was the serious event life-threatening? Valid values are \"Y\" and \"N\".",
            "label": "Is Life Threatening",
            "name": "AESLIFE",
            "ordinal": "42",
            "role": "Record Qualifier",
            "simple_data_type": "Char",
            "uri": "http://id.d4k.dk/dataset/cdisc/sdtm/v3-4/ae/aeslife"
        },
        {
            "core": "Perm",
            "ct": "C66742",
            "described_value_domain": "",
            "description": "Did the serious event occur with an overdose? Valid values are \"Y\" and \"N\". This is a legacy seriousness criterion. It is not included in ICH E2A or E2B.",
            "label": "Occurred with Overdose",
            "name": "AESOD",
            "ordinal": "43",
            "role": "Record Qualifier",
            "simple_data_type": "Char",
            "uri": "http://id.d4k.dk/dataset/cdisc/sdtm/v3-4/ae/aesod"
        },
        {
            "core": "Perm",
            "ct": "C66742",
            "described_value_domain": "",
            "description": "Do additional categories for seriousness apply? Valid values are \"Y\" and \"N\".",
            "label": "Other Medically Important Serious Event",
            "name": "AESMIE",
            "ordinal": "44",
            "role": "Record Qualifier",
            "simple_data_type": "Char",
            "uri": "http://id.d4k.dk/dataset/cdisc/sdtm/v3-4/ae/aesmie"
        },
        {
            "core": "Perm",
            "ct": "C66742",
            "described_value_domain": "",
            "description": "Records whether medical or surgical intervention was necessary to preclude permanent impairment of a body function, or to prevent permanent damage to a body structure, with either situation suspected to be due to the use of a medical product. This variable is used in conjunction with the other \"seriousness\" variables (e.g., fatal, life-threatening). It is part of the US federal government definition of a serious adverse event; see 21 CFR Part 803.3(w)(3).",
            "label": "Needs Intervention to Prevent Impairment",
            "name": "AESINTV",
            "ordinal": "45",
            "role": "Record Qualifier",
            "simple_data_type": "Char",
            "uri": "http://id.d4k.dk/dataset/cdisc/sdtm/v3-4/ae/aesintv"
        },
        {
            "core": "Perm",
            "ct": "C66742",
            "described_value_domain": "",
            "description": "Any serious adverse effect on health or safety or any life-threatening problem or death caused by or associated with a device, if that effect, problem, or death was not previously identified in nature, severity, or degree of incidence in the investigational plan or application (including a supplementary plan or application), \\n or \\n any other unanticipated serious problem associated with a device that relates to the rights, safety, or welfare of subjects. (21 CFR Part 812.3(s)). \\n This variable applies only to serious AEs and should hold collected data; if the value is derived, it should be held in ADaM.",
            "label": "Unanticipated Adverse Device Effect",
            "name": "AEUNANT",
            "ordinal": "46",
            "role": "Record Qualifier",
            "simple_data_type": "Char",
            "uri": "http://id.d4k.dk/dataset/cdisc/sdtm/v3-4/ae/aeunant"
        },
        {
            "core": "Perm",
            "ct": "",
            "described_value_domain": "",
            "description": "The investigator's opinion as to the causality of the event as related to other protocol-required activities, actions, or assessments (e.g., medication changes, tests/assessments, other procedures). The relationship is to a protocol-specified, non-device-related activity where the device is identified in the data (i.e., has an SPDEVID). The device may be ancillary or under study. \\n Terminology: \\n * In the EU, follow the European Commission Guidelines on Medical Devices, Clinical Investigations: SAE Reporting (MEDDEV 2.7/3) (e.g., Not Related, Unlikely, Possible, Probable, Causal Relationship), with device-specific definitions. \\n * No required Controlled Terminology in US.",
            "label": "Rel of AE to Non-Dev-Rel Study Activity",
            "name": "AERLPRT",
            "ordinal": "47",
            "role": "Record Qualifier",
            "simple_data_type": "Char",
            "uri": "http://id.d4k.dk/dataset/cdisc/sdtm/v3-4/ae/aerlprt"
        },
        {
            "core": "Perm",
            "ct": "",
            "described_value_domain": "",
            "description": "The investigator's opinion as to the likelihood that the device-related study procedure (e.g., implant/insertion, revision/adjustment, explant/removal) caused the AE. The relationship is to a device-related procedure where the device is identified in the data (i.e., has an SPDEVID). The device may be ancillary or under study. \\n Terminology: \\n * In the EU, follow the European Commission Guidelines on Medical Devices, Clinical Investigations: SAE Reporting (MEDDEV 2.7/3) (e.g., Not Related, Unlikely, Possible, Probable, Causal Relationship), with device-specific definitions. \\n * No required Controlled Terminology in US.",
            "label": "Rel of AE to Device-Related Procedure",
            "name": "AERLPRC",
            "ordinal": "48",
            "role": "Record Qualifier",
            "simple_data_type": "Char",
            "uri": "http://id.d4k.dk/dataset/cdisc/sdtm/v3-4/ae/aerlprc"
        },
        {
            "core": "Perm",
            "ct": "C66742",
            "described_value_domain": "",
            "description": "Was another treatment given because of the occurrence of the event? Valid values are \"Y\" and \"N\".",
            "label": "Concomitant or Additional Trtmnt Given",
            "name": "AECONTRT",
            "ordinal": "49",
            "role": "Record Qualifier",
            "simple_data_type": "Char",
            "uri": "http://id.d4k.dk/dataset/cdisc/sdtm/v3-4/ae/aecontrt"
        },
        {
            "core": "Perm",
            "ct": "",
            "described_value_domain": "",
            "description": "Toxicity grade according to a standard toxicity scale (e.g., Common Terminology Criteria for Adverse Events, CTCAE). Sponsors should specify the name of the scale and version used in the metadata (see assumption 7d). If value is from a numeric scale, represent only the number (e.g., \"2\", not \"Grade 2\").",
            "label": "Standard Toxicity Grade",
            "name": "AETOXGR",
            "ordinal": "50",
            "role": "Record Qualifier",
            "simple_data_type": "Char",
            "uri": "http://id.d4k.dk/dataset/cdisc/sdtm/v3-4/ae/aetoxgr"
        },
        {
            "core": "Perm",
            "ct": "",
            "described_value_domain": "",
            "description": "Number that gives the planned order of the element within the arm.",
            "label": "Planned Order of Element within Arm",
            "name": "TAETORD",
            "ordinal": "51",
            "role": "Timing",
            "simple_data_type": "Num",
            "uri": "http://id.d4k.dk/dataset/cdisc/sdtm/v3-4/ae/taetord"
        },
        {
            "core": "Perm",
            "ct": "C99079",
            "described_value_domain": "",
            "description": "Epoch associated with the start date/time of the adverse event. Examples: \"SCREENING\", \"TREATMENT\", \"FOLLOW-UP\".",
            "label": "Epoch",
            "name": "EPOCH",
            "ordinal": "52",
            "role": "Timing",
            "simple_data_type": "Char",
            "uri": "http://id.d4k.dk/dataset/cdisc/sdtm/v3-4/ae/epoch"
        },
        {
            "core": "Exp",
            "ct": "",
            "described_value_domain": "ISO 8601 datetime or interval",
            "description": "Start date/time of the adverse event represented in ISO 8601 character format.",
            "label": "Start Date/Time of Adverse Event",
            "name": "AESTDTC",
            "ordinal": "53",
            "role": "Timing",
            "simple_data_type": "Char",
            "uri": "http://id.d4k.dk/dataset/cdisc/sdtm/v3-4/ae/aestdtc"
        },
        {
            "core": "Exp",
            "ct": "",
            "described_value_domain": "ISO 8601 datetime or interval",
            "description": "End date/time of the adverse event represented in ISO 8601 character format.",
            "label": "End Date/Time of Adverse Event",
            "name": "AEENDTC",
            "ordinal": "54",
            "role": "Timing",
