"id:ID","core","ct","described_value_domain","description","label","name","ordinal","role","simple_data_type","uri"
"1633","Req","","","Unique identifier for a study.","Study Identifier","STUDYID","1","Identifier","Char","http://id.d4k.dk/dataset/cdisc/sdtm/v3-4/ag/studyid"
"1634","Req","","","Two-character abbreviation for the domain.","Domain Abbreviation","DOMAIN","2","Identifier","Char","http://id.d4k.dk/dataset/cdisc/sdtm/v3-4/ag/domain"
"1635","Req","","","Identifier used to uniquely identify a subject across all studies for all applications or submissions involving the product.","Unique Subject Identifier","USUBJID","3","Identifier","Char","http://id.d4k.dk/dataset/cdisc/sdtm/v3-4/ag/usubjid"
"1636","Req","","","Sequence number given to ensure uniqueness of subject records within a domain. May be any valid number.","Sequence Number","AGSEQ","4","Identifier","Num","http://id.d4k.dk/dataset/cdisc/sdtm/v3-4/ag/agseq"
"1637","Perm","","","Used to tie together a block of related records in a single domain for a subject.","Group ID","AGGRPID","5","Identifier","Char","http://id.d4k.dk/dataset/cdisc/sdtm/v3-4/ag/aggrpid"
"1638","Perm","","","Sponsor-defined reference number. May be preprinted on the CRF as an explicit line identifier or defined in the sponsor's operational database. Example: Line number from the procedure or test page.","Sponsor-Defined Identifier","AGSPID","6","Identifier","Char","http://id.d4k.dk/dataset/cdisc/sdtm/v3-4/ag/agspid"
"1639","Perm","","","Identifier used to link related records across domains.This may be a one-to-one or a one-to-many relationship.","Link ID","AGLNKID","7","Identifier","Char","http://id.d4k.dk/dataset/cdisc/sdtm/v3-4/ag/aglnkid"
"1640","Perm","","","Identifier used to link related records across domains.This will usually be a many-to-one relationship.","Link Group ID","AGLNKGRP","8","Identifier","Char","http://id.d4k.dk/dataset/cdisc/sdtm/v3-4/ag/aglnkgrp"
"1641","Req","","","Verbatim medication name that is either preprinted or collected on a CRF.","Reported Agent Name","AGTRT","9","Topic","Char","http://id.d4k.dk/dataset/cdisc/sdtm/v3-4/ag/agtrt"
"1642","Perm","","","If AGTRT is modified to facilitate coding, then AGMODIFY will contain the modified text.","Modified Reported Name","AGMODIFY","10","Synonym Qualifier","Char","http://id.d4k.dk/dataset/cdisc/sdtm/v3-4/ag/agmodify"
"1643","Perm","","","Standardized or dictionary-derived text description of AGTRT or AGMODIFY. Equivalent to the generic medication name in WHO Drug. The sponsor is expected to provide the dictionary name and version used to map the terms utilizing the external codelist element in the Define-XML document. If an intervention term does not have a decode value in the dictionary, then AGDECOD will be left blank.","Standardized Agent Name","AGDECOD","11","Synonym Qualifier","Char","http://id.d4k.dk/dataset/cdisc/sdtm/v3-4/ag/agdecod"
"1644","Perm","","","Used to define a category of agent. Examples: ""CHALLENGE AGENT"", ""PET TRACER"".","Category for Agent","AGCAT","12","Grouping Qualifier","Char","http://id.d4k.dk/dataset/cdisc/sdtm/v3-4/ag/agcat"
"1645","Perm","","","Further categorization of agent.","Subcategory for Agent","AGSCAT","13","Grouping Qualifier","Char","http://id.d4k.dk/dataset/cdisc/sdtm/v3-4/ag/agscat"
"1646","Perm","C66742","","Used to indicate whether (""Y""/null) information about the use of a specific agent was solicited on the CRF.","AG Pre-Specified","AGPRESP","14","Variable Qualifier","Char","http://id.d4k.dk/dataset/cdisc/sdtm/v3-4/ag/agpresp"
"1647","Perm","C66742","","When the use of specific agent is solicited, AGOCCUR is used to indicate whether (""Y""/""N"") use of the agent occurred. Values are null for agents not specifically solicited.","AG Occurrence","AGOCCUR","15","Record Qualifier","Char","http://id.d4k.dk/dataset/cdisc/sdtm/v3-4/ag/agoccur"
"1648","Perm","C66789","","Used to indicate that a question about a prespecified agent was not answered. Should be null or have a value of ""NOT DONE"".","Completion Status","AGSTAT","16","Record Qualifier","Char","http://id.d4k.dk/dataset/cdisc/sdtm/v3-4/ag/agstat"
"1649","Perm","","","Describes the reason a response to a question about the occurrence of a procedure agent was not collected. Used in conjunction with AGSTAT when value is ""NOT DONE"".","Reason Procedure Agent Not Collected","AGREASND","17","Record Qualifier","Char","http://id.d4k.dk/dataset/cdisc/sdtm/v3-4/ag/agreasnd"
"1650","Perm","","","Drug class. May be obtained from coding. When coding to a single class, populate with class value. If using a dictionary and coding to multiple classes, follow guidance in Section 4.2.8.3, Multiple Values for a Non-result Qualifier Variable, or omit AGCLAS.","Agent Class","AGCLAS","18","Variable Qualifier","Char","http://id.d4k.dk/dataset/cdisc/sdtm/v3-4/ag/agclas"
"1651","Perm","","","Class code corresponding to AGCLAS. Drug class. May be obtained from coding. When coding to a single class, populate with class code. If using a dictionary and coding to multiple classes, follow guidance in Section 4.2.8.3, Multiple Values for a Non-result Qualifier Variable, or omit AGCLASCD.","Agent Class Code","AGCLASCD","19","Variable Qualifier","Char","http://id.d4k.dk/dataset/cdisc/sdtm/v3-4/ag/agclascd"
"1652","Perm","","","Amount of AGTRT taken.","Dose per Administration","AGDOSE","20","Record Qualifier","Num","http://id.d4k.dk/dataset/cdisc/sdtm/v3-4/ag/agdose"
"1653","Perm","","","Dosing amounts or a range of dosing information collected in text form. Units may be stored in AGDOSU. Examples: ""200-400"", ""15-20"".","Dose Description","AGDOSTXT","21","Record Qualifier","Char","http://id.d4k.dk/dataset/cdisc/sdtm/v3-4/ag/agdostxt"
"1654","Perm","C71620","","Units for AGDOSE and AGDOSTXT. Examples: ""ng"", ""mg"", ""mg/kg"".","Dose Units","AGDOSU","22","Variable Qualifier","Char","http://id.d4k.dk/dataset/cdisc/sdtm/v3-4/ag/agdosu"
"1655","Perm","C66726","","Dose form for AGTRT. Examples: ""TABLET"", ""AEROSOL"".","Dose Form","AGDOSFRM","23","Variable Qualifier","Char","http://id.d4k.dk/dataset/cdisc/sdtm/v3-4/ag/agdosfrm"
"1656","Perm","C71113","","Usually expressed as the number of repeated administrations of AGDOSE within a specific time period. Example: ""ONCE"".","Dosing Frequency per Interval","AGDOSFRQ","24","Record Qualifier","Char","http://id.d4k.dk/dataset/cdisc/sdtm/v3-4/ag/agdosfrq"
"1657","Perm","C66729","","Route of administration for AGTRT. Example: ""ORAL"".","Route of Administration","AGROUTE","25","Variable Qualifier","Char","http://id.d4k.dk/dataset/cdisc/sdtm/v3-4/ag/agroute"
"1658","Exp","","","1. Clinical encounter number. \n 2. Numeric version of VISIT, used for sorting.","Visit Number","VISITNUM","26","Timing","Num","http://id.d4k.dk/dataset/cdisc/sdtm/v3-4/ag/visitnum"
"1659","Perm","","","1. Protocol-defined description of clinical encounter. \n 2. May be used in addition to VISITNUM and/or VISITDY.","Visit Name","VISIT","27","Timing","Char","http://id.d4k.dk/dataset/cdisc/sdtm/v3-4/ag/visit"
"1660","Perm","","","Planned study day of the visit based upon RFSTDTC in Demographics.","Planned Study Day of Visit","VISITDY","28","Timing","Num","http://id.d4k.dk/dataset/cdisc/sdtm/v3-4/ag/visitdy"
"1661","Perm","","","Number that gives the planned order of the element within the arm for the element in which the agent administration started.","Planned Order of Element within Arm","TAETORD","29","Timing","Num","http://id.d4k.dk/dataset/cdisc/sdtm/v3-4/ag/taetord"
"1662","Perm","C99079","","Epoch associated with the start date/time of the agent administration started.","Epoch","EPOCH","30","Timing","Char","http://id.d4k.dk/dataset/cdisc/sdtm/v3-4/ag/epoch"
"1663","Perm","","ISO 8601 datetime or interval","The date/time when administration of the treatment indicated by AGTRT and the dosing variables began.","Start Date/Time of Agent","AGSTDTC","31","Timing","Char","http://id.d4k.dk/dataset/cdisc/sdtm/v3-4/ag/agstdtc"
"1664","Perm","","ISO 8601 datetime or interval","The date/time when administration of the treatment indicated by AGTRT and the dosing variables ended.","End Date/Time of Agent","AGENDTC","32","Timing","Char","http://id.d4k.dk/dataset/cdisc/sdtm/v3-4/ag/agendtc"
"1665","Perm","","","Study day of start of agent relative to the sponsor-defined RFSTDTC.","Study Day of Start of Agent","AGSTDY","33","Timing","Num","http://id.d4k.dk/dataset/cdisc/sdtm/v3-4/ag/agstdy"
"1666","Perm","","","Study day of end of agent relative to the sponsor-defined RFSTDTC.","Study Day of End of Agent","AGENDY","34","Timing","Num","http://id.d4k.dk/dataset/cdisc/sdtm/v3-4/ag/agendy"
"1667","Perm","","ISO 8601 duration","Collected duration for an agent episode. Used only if collected on the CRF and not derived from start and end date/times.","Duration of Agent","AGDUR","35","Timing","Char","http://id.d4k.dk/dataset/cdisc/sdtm/v3-4/ag/agdur"
"1668","Perm","C66728","","Describes the start of the agent relative to sponsor-defined reference period. The sponsor-defined reference period is a continuous period of time defined by a discrete starting point and a discrete ending point (represented by RFSTDTC and RFENDTC in Demographics). If information such as ""PRIOR"", ""ONGOING"", or ""CONTINUING"" was collected, this information may be translated into AGSTRF. \n Not all values of the codelist are allowable for this variable. See Section 4.4.7, Use of Relative Timing Variables.","Start Relative to Reference Period","AGSTRF","36","Timing","Char","http://id.d4k.dk/dataset/cdisc/sdtm/v3-4/ag/agstrf"
"1669","Perm","C66728","","Describes the end of the agent relative to the sponsor-defined reference period. The sponsor-defined reference period is a continuous period of time defined by a discrete starting point and a discrete ending point (represented by RFSTDTC and RFENDTC in Demographics). If information such as ""PRIOR"", ""ONGOING"", or ""CONTINUING"" was collected, this information may be translated into AGENRF. \n Not all values of the codelist are allowable for this variable. See Section 4.4.7, Use of Relative Timing Variables.","End Relative to Reference Period","AGENRF","37","Timing","Char","http://id.d4k.dk/dataset/cdisc/sdtm/v3-4/ag/agenrf"
"1670","Perm","C66728","","Identifies the start of the agent as being before or after the sponsor-defined reference time point defined by variable AGSTTPT. \n Not all values of the codelist are allowable for this variable. See Section 4.4.7, Use of Relative Timing Variables.","Start Relative to Reference Time Point","AGSTRTPT","38","Timing","Char","http://id.d4k.dk/dataset/cdisc/sdtm/v3-4/ag/agstrtpt"
"1671","Perm","","","Description or date/time in ISO 8601 character format of the reference point referred to by AGSTRTPT. Examples: ""2003-12-15"", ""VISIT 1"".","Start Reference Time Point","AGSTTPT","39","Timing","Char","http://id.d4k.dk/dataset/cdisc/sdtm/v3-4/ag/agsttpt"
"1672","Perm","C66728","","Identifies the end of the agent as being before or after the reference time point defined by variable AGENTPT. Identifies the end of the agent as being before or after the sponsor-defined reference time point defined by variable AGENTPT. \n Not all values of the codelist are allowable for this variable. See Section 4.4.7, Use of Relative Timing Variables.","End Relative to Reference Time Point","AGENRTPT","40","Timing","Char","http://id.d4k.dk/dataset/cdisc/sdtm/v3-4/ag/agenrtpt"
"1673","Perm","","","Description or date/time in ISO 8601 character format of the reference point referred to by AGENRTPT. Examples: ""2003-12-25"", ""VISIT 2"".","End Reference Time Point","AGENTPT","41","Timing","Char","http://id.d4k.dk/dataset/cdisc/sdtm/v3-4/ag/agentpt"
"1674","Req","","","Unique identifier for a study.","Study Identifier","STUDYID","1","Identifier","Char","http://id.d4k.dk/dataset/cdisc/sdtm/v3-4/cm/studyid"
"1675","Req","","","Two-character abbreviation for the domain.","Domain Abbreviation","DOMAIN","2","Identifier","Char","http://id.d4k.dk/dataset/cdisc/sdtm/v3-4/cm/domain"
"1676","Req","","","Identifier used to uniquely identify a subject across all studies for all applications or submissions involving the product.","Unique Subject Identifier","USUBJID","3","Identifier","Char","http://id.d4k.dk/dataset/cdisc/sdtm/v3-4/cm/usubjid"
"1677","Req","","","Sequence number to ensure uniqueness of subject records within a domain. May be any valid number.","Sequence Number","CMSEQ","4","Identifier","Num","http://id.d4k.dk/dataset/cdisc/sdtm/v3-4/cm/cmseq"
"1678","Perm","","","Used to tie together a block of related records in a single domain for a subject.","Group ID","CMGRPID","5","Identifier","Char","http://id.d4k.dk/dataset/cdisc/sdtm/v3-4/cm/cmgrpid"
"1679","Perm","","","Sponsor-defined reference number. Example: a number preprinted on the CRF as an explicit line identifier or record identifier defined in the sponsor's operational database. Example: line number on a concomitant medication page.","Sponsor-Defined Identifier","CMSPID","6","Identifier","Char","http://id.d4k.dk/dataset/cdisc/sdtm/v3-4/cm/cmspid"
"1680","Req","","","Verbatim medication name that is either preprinted or collected on a CRF.","Reported Name of Drug, Med, or Therapy","CMTRT","7","Topic","Char","http://id.d4k.dk/dataset/cdisc/sdtm/v3-4/cm/cmtrt"
"1681","Perm","","","If CMTRT is modified to facilitate coding, then CMMODIFY will contain the modified text.","Modified Reported Name","CMMODIFY","8","Synonym Qualifier","Char","http://id.d4k.dk/dataset/cdisc/sdtm/v3-4/cm/cmmodify"
"1682","Perm","","","Standardized or dictionary-derived text description of CMTRT or CMMODIFY. Equivalent to the generic drug name in WHO Drug. The sponsor is expected to provide the dictionary name and version used to map the terms utilizing the external codelist element in the Define-XML document. If an intervention term does not have a decode value in the dictionary, then CMDECOD will be left blank.","Standardized Medication Name","CMDECOD","9","Synonym Qualifier","Char","http://id.d4k.dk/dataset/cdisc/sdtm/v3-4/cm/cmdecod"
"1683","Perm","","","Used to define a category of medications/treatment. Examples: ""PRIOR"", ""CONCOMITANT"", ""ANTI-CANCER MEDICATION"", ""GENERAL CONMED"".","Category for Medication","CMCAT","10","Grouping Qualifier","Char","http://id.d4k.dk/dataset/cdisc/sdtm/v3-4/cm/cmcat"
"1684","Perm","","","A further categorization of medications/treatment. Examples: ""CHEMOTHERAPY"", ""HORMONAL THERAPY"", ""ALTERNATIVE THERAPY"".","Subcategory for Medication","CMSCAT","11","Grouping Qualifier","Char","http://id.d4k.dk/dataset/cdisc/sdtm/v3-4/cm/cmscat"
"1685","Perm","C66742","","Used to indicate whether (""Y""/null) information about the use of a specific medication was solicited on the CRF.","CM Pre-specified","CMPRESP","12","Variable Qualifier","Char","http://id.d4k.dk/dataset/cdisc/sdtm/v3-4/cm/cmpresp"
"1686","Perm","C66742","","When the use of a specific medication is solicited. CMOCCUR is used to indicate whether (""Y""/""N"") use of the medication occurred. Values are null for medications not specifically solicited.","CM Occurrence","CMOCCUR","13","Record Qualifier","Char","http://id.d4k.dk/dataset/cdisc/sdtm/v3-4/cm/cmoccur"
"1687","Perm","C66789","","Used to indicate that a question about the occurrence of a prespecified intervention was not answered. Should be null or have a value of ""NOT DONE"".","Completion Status","CMSTAT","14","Record Qualifier","Char","http://id.d4k.dk/dataset/cdisc/sdtm/v3-4/cm/cmstat"
"1688","Perm","","","Reason not done. Used in conjunction with CMSTAT when value is ""NOT DONE"".","Reason Medication Not Collected","CMREASND","15","Record Qualifier","Char","http://id.d4k.dk/dataset/cdisc/sdtm/v3-4/cm/cmreasnd"
"1689","Perm","","","Denotes why a medication was taken or administered. Examples: ""NAUSEA"", ""HYPERTENSION"".","Indication","CMINDC","16","Record Qualifier","Char","http://id.d4k.dk/dataset/cdisc/sdtm/v3-4/cm/cmindc"
"1690","Perm","","","Drug class. May be obtained from coding. When coding to a single class, populate with class value. If using a dictionary and coding to multiple classes, then follow Section 4.2.8.3, Multiple Values for a Non-result Qualifier Variable, or omit CMCLAS.","Medication Class","CMCLAS","17","Variable Qualifier","Char","http://id.d4k.dk/dataset/cdisc/sdtm/v3-4/cm/cmclas"
"1691","Perm","","","Class code corresponding to CMCLAS. Drug class. May be obtained from coding. When coding to a single class, populate with class code. If using a dictionary and coding to multiple classes, then follow Section 4.2.8.3, Multiple Values for a Non-result Qualifier Variable, or omit CMCLASCD.","Medication Class Code","CMCLASCD","18","Variable Qualifier","Char","http://id.d4k.dk/dataset/cdisc/sdtm/v3-4/cm/cmclascd"
"1692","Perm","","","Amount of CMTRT given. Not populated when CMDOSTXT is populated.","Dose per Administration","CMDOSE","19","Record Qualifier","Num","http://id.d4k.dk/dataset/cdisc/sdtm/v3-4/cm/cmdose"
"1693","Perm","","","Dosing amounts or a range of dosing information collected in text form. Units may be stored in CMDOSU. Examples: ""200-400"", ""15-20"". Not populated when CMDOSE is populated.","Dose Description","CMDOSTXT","20","Record Qualifier","Char","http://id.d4k.dk/dataset/cdisc/sdtm/v3-4/cm/cmdostxt"
"1694","Perm","C71620","","Units for CMDOSE, CMDOSTOT, or CMDOSTXT. Examples: ""ng"", ""mg"", ""mg/kg"".","Dose Units","CMDOSU","21","Variable Qualifier","Char","http://id.d4k.dk/dataset/cdisc/sdtm/v3-4/cm/cmdosu"
"1695","Perm","C66726","","Dose form for CMTRT. Examples: ""TABLET"", ""LOTION"".","Dose Form","CMDOSFRM","22","Variable Qualifier","Char","http://id.d4k.dk/dataset/cdisc/sdtm/v3-4/cm/cmdosfrm"
"1696","Perm","C71113","","Usually expressed as the number of repeated administrations of CMDOSE within a specific time period. Examples: ""BID"" (twice daily), ""Q12H"" (every 12 hours).","Dosing Frequency per Interval","CMDOSFRQ","23","Record Qualifier","Char","http://id.d4k.dk/dataset/cdisc/sdtm/v3-4/cm/cmdosfrq"
"1697","Perm","","","Total daily dose of CMTRT using the units in CMDOSU. Used when dosing is collected as total daily dose. Total dose over a period other than day could be recorded in a separate supplemental qualifier variable.","Total Daily Dose","CMDOSTOT","24","Record Qualifier","Num","http://id.d4k.dk/dataset/cdisc/sdtm/v3-4/cm/cmdostot"
"1698","Perm","","","Text description of the (intended) schedule or regimen for the Intervention. Example: ""TWO WEEKS ON, TWO WEEKS OFF"".","Intended Dose Regimen","CMDOSRGM","25","Record Qualifier","Char","http://id.d4k.dk/dataset/cdisc/sdtm/v3-4/cm/cmdosrgm"
"1699","Perm","C66729","","Route of administration for the intervention. Examples: ""ORAL"", ""INTRAVENOUS"".","Route of Administration","CMROUTE","26","Variable Qualifier","Char","http://id.d4k.dk/dataset/cdisc/sdtm/v3-4/cm/cmroute"
"1700","Perm","","","Describes reason or explanation of why a dose is adjusted. Examples: ""ADVERSE EVENT"", ""INSUFFICIENT RESPONSE"", ""NON-MEDICAL REASON"".","Reason for Dose Adjustment","CMADJ","27","Record Qualifier","Char","http://id.d4k.dk/dataset/cdisc/sdtm/v3-4/cm/cmadj"
"1701","Perm","","","When dosing of a treatment is recorded over multiple successive records, this variable is applicable only for the (chronologically) last record for the treatment.","Reason the Intervention Was Discontinued","CMRSDISC","28","Record Qualifier","Char","http://id.d4k.dk/dataset/cdisc/sdtm/v3-4/cm/cmrsdisc"
"1702","Perm","","","Number that gives the planned order of the element within the arm for the element in which the medication administration started. Null for medications that started before study participation.","Planned Order of Element within Arm","TAETORD","29","Timing","Num","http://id.d4k.dk/dataset/cdisc/sdtm/v3-4/cm/taetord"
"1703","Perm","C99079","","Epoch associated with the start date/time of the medication administration. Null for medications that started before study participation.","Epoch","EPOCH","30","Timing","Char","http://id.d4k.dk/dataset/cdisc/sdtm/v3-4/cm/epoch"
"1704","Perm","","ISO 8601 datetime or interval","Start date/time of the medication administration represented in ISO 8601 character format.","Start Date/Time of Medication","CMSTDTC","31","Timing","Char","http://id.d4k.dk/dataset/cdisc/sdtm/v3-4/cm/cmstdtc"
"1705","Perm","","ISO 8601 datetime or interval","End date/time of the medication administration represented in ISO 8601 character format.","End Date/Time of Medication","CMENDTC","32","Timing","Char","http://id.d4k.dk/dataset/cdisc/sdtm/v3-4/cm/cmendtc"
"1706","Perm","","","Study day of start of medication relative to the sponsor-defined RFSTDTC.","Study Day of Start of Medication","CMSTDY","33","Timing","Num","http://id.d4k.dk/dataset/cdisc/sdtm/v3-4/cm/cmstdy"
"1707","Perm","","","Study day of end of medication relative to the sponsor-defined RFSTDTC.","Study Day of End of Medication","CMENDY","34","Timing","Num","http://id.d4k.dk/dataset/cdisc/sdtm/v3-4/cm/cmendy"
"1708","Perm","","ISO 8601 duration","Collected duration for a treatment episode. Used only if collected on the CRF and not derived from start and end date/times.","Duration","CMDUR","35","Timing","Char","http://id.d4k.dk/dataset/cdisc/sdtm/v3-4/cm/cmdur"
"1709","Perm","C66728","","Describes the start of the medication relative to sponsor-defined reference period. The sponsor-defined reference period is a continuous period of time defined by a discrete starting point and a discrete ending point (represented by RFSTDTC and RFENDTC in Demographics). If information such as ""PRIOR"" was collected, this information may be translated into CMSTRF. \n Not all values of the codelist are allowable for this variable. See Section 4.4.7, Use of Relative Timing Variables.","Start Relative to Reference Period","CMSTRF","36","Timing","Char","http://id.d4k.dk/dataset/cdisc/sdtm/v3-4/cm/cmstrf"
"1710","Perm","C66728","","Describes the end of the medication relative to the sponsor-defined reference period. The sponsor-defined reference period is a continuous period of time defined by a discrete starting point and a discrete ending point (represented by RFSTDTC and RFENDTC in Demographics). If information such as ""PRIOR"", ""ONGOING, or ""CONTINUING"" was collected, this information may be translated into CMENRF. \n Not all values of the codelist are allowable for this variable. See Section 4.4.7, Use of Relative Timing Variables.","End Relative to Reference Period","CMENRF","37","Timing","Char","http://id.d4k.dk/dataset/cdisc/sdtm/v3-4/cm/cmenrf"
"1711","Perm","C66728","","Identifies the start of the medication as being before or after the sponsor-defined reference time point defined by variable CMSTTPT. \n Not all values of the codelist are allowable for this variable. See Section 4.4.7, Use of Relative Timing Variables.","Start Relative to Reference Time Point","CMSTRTPT","38","Timing","Char","http://id.d4k.dk/dataset/cdisc/sdtm/v3-4/cm/cmstrtpt"
"1712","Perm","","","Description or date/time in ISO 8601 character format of the sponsor-defined reference point referred to by CMSTRTPT. Examples: ""2003-12-15"", ""VISIT 1"".","Start Reference Time Point","CMSTTPT","39","Timing","Char","http://id.d4k.dk/dataset/cdisc/sdtm/v3-4/cm/cmsttpt"
"1713","Perm","C66728","","Identifies the end of the medication as being before or after the sponsor-defined reference time point defined by variable CMENTPT. \n Not all values of the codelist are allowable for this variable. See Section 4.4.7, Use of Relative Timing Variables.","End Relative to Reference Time Point","CMENRTPT","40","Timing","Char","http://id.d4k.dk/dataset/cdisc/sdtm/v3-4/cm/cmenrtpt"
"1714","Perm","","","Description or date/time in ISO 8601 character format of the sponsor-defined reference point referred to by CMENRTPT. Examples: ""2003-12-25"", ""VISIT 2"".","End Reference Time Point","CMENTPT","41","Timing","Char","http://id.d4k.dk/dataset/cdisc/sdtm/v3-4/cm/cmentpt"
"1715","Req","","","Unique identifier for a study.","Study Identifier","STUDYID","1","Identifier","Char","http://id.d4k.dk/dataset/cdisc/sdtm/v3-4/ec/studyid"
"1716","Req","","","Two-character abbreviation for the domain.","Domain Abbreviation","DOMAIN","2","Identifier","Char","http://id.d4k.dk/dataset/cdisc/sdtm/v3-4/ec/domain"
"1717","Req","","","Identifier used to uniquely identify a subject across all studies for all applications or submissions involving the product.","Unique Subject Identifier","USUBJID","3","Identifier","Char","http://id.d4k.dk/dataset/cdisc/sdtm/v3-4/ec/usubjid"
"1718","Req","","","Sequence number given to ensure uniqueness of subject records within a domain. May be any valid number.","Sequence Number","ECSEQ","4","Identifier","Num","http://id.d4k.dk/dataset/cdisc/sdtm/v3-4/ec/ecseq"
"1719","Perm","","","Used to tie together a block of related records in a single domain for a subject.","Group ID","ECGRPID","5","Identifier","Char","http://id.d4k.dk/dataset/cdisc/sdtm/v3-4/ec/ecgrpid"
"1720","Perm","","","Internal or external identifier (e.g., kit number, bottle label, vial identifier).","Reference ID","ECREFID","6","Identifier","Char","http://id.d4k.dk/dataset/cdisc/sdtm/v3-4/ec/ecrefid"
"1721","Perm","","","Sponsor-defined reference number. May be preprinted on the CRF as an explicit line identifier or defined in the sponsor's operational database. Example: Line number on a CRF page.","Sponsor-Defined Identifier","ECSPID","7","Identifier","Char","http://id.d4k.dk/dataset/cdisc/sdtm/v3-4/ec/ecspid"
"1722","Perm","","","Identifier used to link related records across domains.","Link ID","ECLNKID","8","Identifier","Char","http://id.d4k.dk/dataset/cdisc/sdtm/v3-4/ec/eclnkid"
"1723","Perm","","","Identifier used to link related, grouped records across domains.","Link Group ID","ECLNKGRP","9","Identifier","Char","http://id.d4k.dk/dataset/cdisc/sdtm/v3-4/ec/eclnkgrp"
"1724","Req","","","Name of the intervention treatment known to the subject and/or administrator.","Name of Treatment","ECTRT","10","Topic","Char","http://id.d4k.dk/dataset/cdisc/sdtm/v3-4/ec/ectrt"
"1725","Perm","C125923","","Mode or condition of the record specifying whether the intervention (activity) is intended to happen or has happened. Values align with BRIDG pillars (e.g., scheduled context, performed context) and HL7 activity moods (e.g., intent, event). Examples: ""SCHEDULED"", ""PERFORMED"".","Mood","ECMOOD","11","Record Qualifier","Char","http://id.d4k.dk/dataset/cdisc/sdtm/v3-4/ec/ecmood"
"1726","Perm","","","Used to define a category of related ECTRT values.","Category of Treatment","ECCAT","12","Grouping Qualifier","Char","http://id.d4k.dk/dataset/cdisc/sdtm/v3-4/ec/eccat"
"1727","Perm","","","A further categorization of ECCAT values.","Subcategory of Treatment","ECSCAT","13","Grouping Qualifier","Char","http://id.d4k.dk/dataset/cdisc/sdtm/v3-4/ec/ecscat"
"1728","Perm","C66742","","Used when a specific intervention is prespecified. Values should be ""Y"" or null.","Pre-Specified","ECPRESP","14","Variable Qualifier","Char","http://id.d4k.dk/dataset/cdisc/sdtm/v3-4/ec/ecpresp"
"1729","Perm","C66742","","Used to indicate whether a treatment occurred when information about the occurrence is solicited. ECOCCUR = ""N"" when a treatment was not taken, not given, or missed.","Occurrence","ECOCCUR","15","Record Qualifier","Char","http://id.d4k.dk/dataset/cdisc/sdtm/v3-4/ec/ecoccur"
"1730","Perm","","","The reason for the value in --OCCUR. If --OCCUR = ""N"", this is the reason the exposure did not occur.","Reason for Occur Value","ECREASOC","16","Record Qualifier","Char","http://id.d4k.dk/dataset/cdisc/sdtm/v3-4/ec/ecreasoc"
"1731","Exp","","","Amount of ECTRT when numeric. Not populated when ECDOSTXT is populated.","Dose","ECDOSE","17","Record Qualifier","Num","http://id.d4k.dk/dataset/cdisc/sdtm/v3-4/ec/ecdose"
"1732","Perm","","","Amount of ECTRT when non-numeric. Dosing amounts or a range of dosing information collected in text form. Example: ""200-400"". Not populated when ECDOSE is populated.","Dose Description","ECDOSTXT","18","Record Qualifier","Char","http://id.d4k.dk/dataset/cdisc/sdtm/v3-4/ec/ecdostxt"
"1733","Exp","C71620","","Units for ECDOSE, ECDOSTOT, or ECDOSTXT.","Dose Units","ECDOSU","19","Variable Qualifier","Char","http://id.d4k.dk/dataset/cdisc/sdtm/v3-4/ec/ecdosu"
"1734","Exp","C66726","","Dose form for ECTRT. Examples: ""TABLET"", ""LOTION"".","Dose Form","ECDOSFRM","20","Variable Qualifier","Char","http://id.d4k.dk/dataset/cdisc/sdtm/v3-4/ec/ecdosfrm"
"1735","Perm","C71113","","Usually expressed as the number of repeated administrations of ECDOSE within a specific time period. Examples: ""Q2H"", ""QD"", ""BID"".","Dosing Frequency per Interval","ECDOSFRQ","21","Record Qualifier","Char","http://id.d4k.dk/dataset/cdisc/sdtm/v3-4/ec/ecdosfrq"
"1736","Perm","","","Total daily dose of ECTRT using the units in ECDOSU. Used when dosing is collected as total daily dose.","Total Daily Dose","ECDOSTOT","22","Record Qualifier","Num","http://id.d4k.dk/dataset/cdisc/sdtm/v3-4/ec/ecdostot"
"1737","Perm","","","Text description of the intended schedule or regimen for the Intervention. Example: ""TWO WEEKS ON"", ""TWO WEEKS OFF"".","Intended Dose Regimen","ECDOSRGM","23","Record Qualifier","Char","http://id.d4k.dk/dataset/cdisc/sdtm/v3-4/ec/ecdosrgm"
"1738","Perm","C66729","","Route of administration for the intervention. Examples: ""ORAL"", ""INTRAVENOUS"".","Route of Administration","ECROUTE","24","Variable Qualifier","Char","http://id.d4k.dk/dataset/cdisc/sdtm/v3-4/ec/ecroute"
"1739","Perm","","","Lot number of the ECTRT product.","Lot Number","ECLOT","25","Record Qualifier","Char","http://id.d4k.dk/dataset/cdisc/sdtm/v3-4/ec/eclot"
"1740","Perm","C74456","","Specifies location of administration. Example: ""ARM"", ""LIP"".","Location of Dose Administration","ECLOC","26","Record Qualifier","Char","http://id.d4k.dk/dataset/cdisc/sdtm/v3-4/ec/ecloc"
"1741","Perm","C99073","","Qualifier for anatomical location further detailing laterality of the intervention administration. Examples: ""LEFT"", ""RIGHT"".","Laterality","ECLAT","27","Variable Qualifier","Char","http://id.d4k.dk/dataset/cdisc/sdtm/v3-4/ec/eclat"
"1742","Perm","C99074","","Qualifier for anatomical location further detailing directionality. Examples: ""ANTERIOR"", ""LOWER"", ""PROXIMAL"", ""UPPER"".","Directionality","ECDIR","28","Variable Qualifier","Char","http://id.d4k.dk/dataset/cdisc/sdtm/v3-4/ec/ecdir"
"1743","Perm","C99075","","Qualifier for anatomical location further detailing distribution (i.e., arrangement of, apportioning of). Examples: ""ENTIRE"", ""SINGLE"", ""SEGMENT"".","Portion or Totality","ECPORTOT","29","Variable Qualifier","Char","http://id.d4k.dk/dataset/cdisc/sdtm/v3-4/ec/ecportot"
"1744","Perm","C66742","","Indicator used to identify fasting status. Examples: ""Y"", ""N"".","Fasting Status","ECFAST","30","Record Qualifier","Char","http://id.d4k.dk/dataset/cdisc/sdtm/v3-4/ec/ecfast"
"1745","Perm","","","Amount of an active ingredient expressed quantitatively per dosage unit, per unit of volume, or per unit of weight, according to the pharmaceutical dose form.","Pharmaceutical Strength","ECPSTRG","31","Record Qualifier","Num","http://id.d4k.dk/dataset/cdisc/sdtm/v3-4/ec/ecpstrg"
"1746","Perm","C71620","","Unit for ECPSTRG. Examples: ""mg/TABLET"", ""mg/mL"".","Pharmaceutical Strength Units","ECPSTRGU","32","Variable Qualifier","Char","http://id.d4k.dk/dataset/cdisc/sdtm/v3-4/ec/ecpstrgu"
"1747","Perm","","","Describes reason or explanation of why a dose is adjusted.","Reason for Dose Adjustment","ECADJ","33","Record Qualifier","Char","http://id.d4k.dk/dataset/cdisc/sdtm/v3-4/ec/ecadj"
"1748","Perm","","","Number that gives the planned order of the element within the arm.","Planned Order of Element within Arm","TAETORD","34","Timing","Num","http://id.d4k.dk/dataset/cdisc/sdtm/v3-4/ec/taetord"
"1749","Perm","C99079","","Trial epoch of the exposure as collected record. Examples: ""RUN-IN"", ""TREATMENT"".","Epoch","EPOCH","35","Timing","Char","http://id.d4k.dk/dataset/cdisc/sdtm/v3-4/ec/epoch"
"1750","Exp","","ISO 8601 datetime or interval","The date/time when administration of the treatment indicated by ECTRT and ECDOSE began.","Start Date/Time of Treatment","ECSTDTC","36","Timing","Char","http://id.d4k.dk/dataset/cdisc/sdtm/v3-4/ec/ecstdtc"
"1751","Exp","","ISO 8601 datetime or interval","The date/time when administration of the treatment indicated by ECTRT and ECDOSE ended. For administrations considered given at a point in time (e.g., oral tablet, pre-filled syringe injection), where only an administration date/time is collected, ECSTDTC should be copied to ECENDTC as the standard representation.","End Date/Time of Treatment","ECENDTC","37","Timing","Char","http://id.d4k.dk/dataset/cdisc/sdtm/v3-4/ec/ecendtc"
"1752","Perm","","","Study day of ECSTDTC relative to the sponsor-defined DM.RFSTDTC.","Study Day of Start of Treatment","ECSTDY","38","Timing","Num","http://id.d4k.dk/dataset/cdisc/sdtm/v3-4/ec/ecstdy"
"1753","Perm","","","Study day of ECENDTC relative to the sponsor-defined DM.RFSTDTC.","Study Day of End of Treatment","ECENDY","39","Timing","Num","http://id.d4k.dk/dataset/cdisc/sdtm/v3-4/ec/ecendy"
"1754","Perm","","ISO 8601 duration","Collected duration of administration. Used only if collected on the CRF and not derived from start and end date/times.","Duration of Treatment","ECDUR","40","Timing","Char","http://id.d4k.dk/dataset/cdisc/sdtm/v3-4/ec/ecdur"
"1755","Perm","","","Text description of time when administration should occur. This may be represented as an elapsed time relative to a fixed reference point, such as time of last dose. See ECTPTNUM and ECTPTREF.","Planned Time Point Name","ECTPT","41","Timing","Char","http://id.d4k.dk/dataset/cdisc/sdtm/v3-4/ec/ectpt"
"1756","Perm","","","Numerical version of ECTPT to aid in sorting.","Planned Time Point Number","ECTPTNUM","42","Timing","Num","http://id.d4k.dk/dataset/cdisc/sdtm/v3-4/ec/ectptnum"
"1757","Perm","","ISO 8601 duration","Planned elapsed time relative to the planned fixed reference (ECTPTREF). This variable is useful where there are repetitive measures. Not a clock time.","Planned Elapsed Time from Time Point Ref","ECELTM","43","Timing","Char","http://id.d4k.dk/dataset/cdisc/sdtm/v3-4/ec/eceltm"
"1758","Perm","","","Name of the fixed reference point referred to by ECELTM, ECTPTNUM, and ECTPT. Examples: ""PREVIOUS DOSE"", ""PREVIOUS MEAL"".","Time Point Reference","ECTPTREF","44","Timing","Char","http://id.d4k.dk/dataset/cdisc/sdtm/v3-4/ec/ectptref"
"1759","Perm","","ISO 8601 datetime or interval","Date/time for a fixed reference time point defined by ECTPTREF.","Date/Time of Reference Time Point","ECRFTDTC","45","Timing","Char","http://id.d4k.dk/dataset/cdisc/sdtm/v3-4/ec/ecrftdtc"
"1760","Req","","","Unique identifier for a study.","Study Identifier","STUDYID","1","Identifier","Char","http://id.d4k.dk/dataset/cdisc/sdtm/v3-4/ex/studyid"
"1761","Req","","","Two-character abbreviation for the domain.","Domain Abbreviation","DOMAIN","2","Identifier","Char","http://id.d4k.dk/dataset/cdisc/sdtm/v3-4/ex/domain"
"1762","Req","","","Identifier used to uniquely identify a subject across all studies for all applications or submissions involving the product.","Unique Subject Identifier","USUBJID","3","Identifier","Char","http://id.d4k.dk/dataset/cdisc/sdtm/v3-4/ex/usubjid"
"1763","Req","","","Sequence number given to ensure uniqueness of subject records within a domain. May be any valid number.","Sequence Number","EXSEQ","4","Identifier","Num","http://id.d4k.dk/dataset/cdisc/sdtm/v3-4/ex/exseq"
"1764","Perm","","","Used to tie together a block of related records in a single domain for a subject.","Group ID","EXGRPID","5","Identifier","Char","http://id.d4k.dk/dataset/cdisc/sdtm/v3-4/ex/exgrpid"
"1765","Perm","","","Internal or external identifier (e.g., kit number, bottle label, vial identifier).","Reference ID","EXREFID","6","Identifier","Char","http://id.d4k.dk/dataset/cdisc/sdtm/v3-4/ex/exrefid"
"1766","Perm","","","Sponsor-defined reference number. May be preprinted on the CRF as an explicit line identifier or defined in the sponsor's operational database. Example: Line number on a CRF page.","Sponsor-Defined Identifier","EXSPID","7","Identifier","Char","http://id.d4k.dk/dataset/cdisc/sdtm/v3-4/ex/exspid"
"1767","Perm","","","Identifier used to link related records across domains.","Link ID","EXLNKID","8","Identifier","Char","http://id.d4k.dk/dataset/cdisc/sdtm/v3-4/ex/exlnkid"
"1768","Perm","","","Identifier used to link related, grouped records across domains.","Link Group ID","EXLNKGRP","9","Identifier","Char","http://id.d4k.dk/dataset/cdisc/sdtm/v3-4/ex/exlnkgrp"
"1769","Req","","","Name of the protocol-specified study treatment given during the dosing period for the observation.","Name of Treatment","EXTRT","10","Topic","Char","http://id.d4k.dk/dataset/cdisc/sdtm/v3-4/ex/extrt"
"1770","Perm","","","Used to define a category of EXTRT values.","Category of Treatment","EXCAT","11","Grouping Qualifier","Char","http://id.d4k.dk/dataset/cdisc/sdtm/v3-4/ex/excat"
"1771","Perm","","","A further categorization of EXCAT values.","Subcategory of Treatment","EXSCAT","12","Grouping Qualifier","Char","http://id.d4k.dk/dataset/cdisc/sdtm/v3-4/ex/exscat"
"1772","Exp","","","Amount of EXTRT when numeric. Not populated when EXDOSTXT is populated.","Dose","EXDOSE","13","Record Qualifier","Num","http://id.d4k.dk/dataset/cdisc/sdtm/v3-4/ex/exdose"
"1773","Perm","","","Amount of EXTRT when non-numeric. Dosing amounts or a range of dosing information collected in text form. Example: ""200-400"". Not populated when EXDOSE is populated.","Dose Description","EXDOSTXT","14","Record Qualifier","Char","http://id.d4k.dk/dataset/cdisc/sdtm/v3-4/ex/exdostxt"
"1774","Exp","C71620","","Units for EXDOSE, EXDOSTOT, or EXDOSTXT representing protocol-specified values. Examples: ""ng"", ""mg"", ""mg/kg"", ""mg/m2"".","Dose Units","EXDOSU","15","Variable Qualifier","Char","http://id.d4k.dk/dataset/cdisc/sdtm/v3-4/ex/exdosu"
"1775","Exp","C66726","","Dose form for EXTRT. Examples: ""TABLET"", ""LOTION"".","Dose Form","EXDOSFRM","16","Variable Qualifier","Char","http://id.d4k.dk/dataset/cdisc/sdtm/v3-4/ex/exdosfrm"
"1776","Perm","C71113","","Usually expressed as the number of repeated administrations of EXDOSE within a specific time period. Examples: ""Q2H"", ""QD"", ""BID"".","Dosing Frequency per Interval","EXDOSFRQ","17","Record Qualifier","Char","http://id.d4k.dk/dataset/cdisc/sdtm/v3-4/ex/exdosfrq"
"1777","Perm","","","Text description of the intended schedule or regimen for the Intervention. Example: ""TWO WEEKS ON, TWO WEEKS OFF"".","Intended Dose Regimen","EXDOSRGM","18","Record Qualifier","Char","http://id.d4k.dk/dataset/cdisc/sdtm/v3-4/ex/exdosrgm"
"1778","Perm","C66729","","Route of administration for the intervention. Examples: ""ORAL"", ""INTRAVENOUS"".","Route of Administration","EXROUTE","19","Variable Qualifier","Char","http://id.d4k.dk/dataset/cdisc/sdtm/v3-4/ex/exroute"
"1779","Perm","","","Lot number of the intervention product.","Lot Number","EXLOT","20","Record Qualifier","Char","http://id.d4k.dk/dataset/cdisc/sdtm/v3-4/ex/exlot"
"1780","Perm","C74456","","Specifies location of administration. Examples: ""ARM"", ""LIP"".","Location of Dose Administration","EXLOC","21","Record Qualifier","Char","http://id.d4k.dk/dataset/cdisc/sdtm/v3-4/ex/exloc"
"1781","Perm","C99073","","Qualifier for anatomical location further detailing laterality of the intervention administration. Examples: ""LEFT"", ""RIGHT"".","Laterality","EXLAT","22","Variable Qualifier","Char","http://id.d4k.dk/dataset/cdisc/sdtm/v3-4/ex/exlat"
"1782","Perm","C99074","","Qualifier for anatomical location further detailing directionality. Examples: ""ANTERIOR"", ""LOWER"", ""PROXIMAL"", ""UPPER"".","Directionality","EXDIR","23","Variable Qualifier","Char","http://id.d4k.dk/dataset/cdisc/sdtm/v3-4/ex/exdir"
"1783","Perm","C66742","","Indicator used to identify fasting status. Examples: ""Y"", ""N"".","Fasting Status","EXFAST","24","Record Qualifier","Char","http://id.d4k.dk/dataset/cdisc/sdtm/v3-4/ex/exfast"
"1784","Perm","","","Describes reason or explanation of why a dose is adjusted.","Reason for Dose Adjustment","EXADJ","25","Record Qualifier","Char","http://id.d4k.dk/dataset/cdisc/sdtm/v3-4/ex/exadj"
"1785","Perm","","","Number that gives the planned order of the element within the arm.","Planned Order of Element within Arm","TAETORD","26","Timing","Num","http://id.d4k.dk/dataset/cdisc/sdtm/v3-4/ex/taetord"
"1786","Perm","C99079","","Trial epoch of the exposure record. Examples: ""RUN-IN"", ""TREATMENT"".","Epoch","EPOCH","27","Timing","Char","http://id.d4k.dk/dataset/cdisc/sdtm/v3-4/ex/epoch"
"1787","Exp","","ISO 8601 datetime or interval","The date/time when administration of the treatment indicated by EXTRT and EXDOSE began.","Start Date/Time of Treatment","EXSTDTC","28","Timing","Char","http://id.d4k.dk/dataset/cdisc/sdtm/v3-4/ex/exstdtc"
"1788","Exp","","ISO 8601 datetime or interval","The date/time when administration of the treatment indicated by EXTRT and EXDOSE ended. For administrations considered given at a point in time (e.g., oral tablet, pre-filled syringe injection), where only an administration date/time is collected, EXSTDTC should be copied to EXENDTC as the standard representation.","End Date/Time of Treatment","EXENDTC","29","Timing","Char","http://id.d4k.dk/dataset/cdisc/sdtm/v3-4/ex/exendtc"
"1789","Perm","","","Study day of EXSTDTC relative to DM.RFSTDTC.","Study Day of Start of Treatment","EXSTDY","30","Timing","Num","http://id.d4k.dk/dataset/cdisc/sdtm/v3-4/ex/exstdy"
"1790","Perm","","","Study day of EXENDTC relative to DM.RFSTDTC.","Study Day of End of Treatment","EXENDY","31","Timing","Num","http://id.d4k.dk/dataset/cdisc/sdtm/v3-4/ex/exendy"
"1791","Perm","","ISO 8601 duration","Collected duration of administration. Used only if collected on the CRF and not derived from start and end date/times.","Duration of Treatment","EXDUR","32","Timing","Char","http://id.d4k.dk/dataset/cdisc/sdtm/v3-4/ex/exdur"
"1792","Perm","","","Text description of time when administration should occur. This may be represented as an elapsed time relative to a fixed reference point, such as time of last dose. See EXTPTNUM and EXTPTREF.","Planned Time Point Name","EXTPT","33","Timing","Char","http://id.d4k.dk/dataset/cdisc/sdtm/v3-4/ex/extpt"
"1793","Perm","","","Numerical version of EXTPT to aid in sorting.","Planned Time Point Number","EXTPTNUM","34","Timing","Num","http://id.d4k.dk/dataset/cdisc/sdtm/v3-4/ex/extptnum"
"1794","Perm","","ISO 8601 duration","Planned elapsed time relative to the planned fixed reference (EXTPTREF). This variable is useful where there are repetitive measures. Not a clock time.","Planned Elapsed Time from Time Point Ref","EXELTM","35","Timing","Char","http://id.d4k.dk/dataset/cdisc/sdtm/v3-4/ex/exeltm"
"1795","Perm","","","Name of the fixed reference point referred to by EXELTM, EXTPTNUM, and EXTPT. Examples: PREVIOUS DOSE, PREVIOUS MEAL.","Time Point Reference","EXTPTREF","36","Timing","Char","http://id.d4k.dk/dataset/cdisc/sdtm/v3-4/ex/extptref"
"1796","Perm","","ISO 8601 datetime or interval","Date/time for a fixed reference time point defined by EXTPTREF.","Date/Time of Reference Time Point","EXRFTDTC","37","Timing","Char","http://id.d4k.dk/dataset/cdisc/sdtm/v3-4/ex/exrftdtc"
"1797","Req","","","Unique identifier for a study.","Study Identifier","STUDYID","1","Identifier","Char","http://id.d4k.dk/dataset/cdisc/sdtm/v3-4/ml/studyid"
"1798","Req","","","Two-character abbreviation for the domain.","Domain Abbreviation","DOMAIN","2","Identifier","Char","http://id.d4k.dk/dataset/cdisc/sdtm/v3-4/ml/domain"
"1799","Req","","","Identifier used to uniquely identify a subject across all studies for all applications or submissions involving the product.","Unique Subject Identifier","USUBJID","3","Identifier","Char","http://id.d4k.dk/dataset/cdisc/sdtm/v3-4/ml/usubjid"
"1800","Req","","","Sequence number given to ensure uniqueness of subject records within a domain. May be any valid number.","Sequence Number","MLSEQ","4","Identifier","Num","http://id.d4k.dk/dataset/cdisc/sdtm/v3-4/ml/mlseq"
"1801","Perm","","","Used to tie together a block of related records in a single domain for a subject.","Group ID","MLGRPID","5","Identifier","Char","http://id.d4k.dk/dataset/cdisc/sdtm/v3-4/ml/mlgrpid"
"1802","Perm","","","Sponsor-defined reference number. Examples: a number preprinted on the CRF as an explicit line identifier, record identifier defined in the sponsor's operational database.","Sponsor-Defined Identifier","MLSPID","6","Identifier","Char","http://id.d4k.dk/dataset/cdisc/sdtm/v3-4/ml/mlspid"
"1803","Req","","","Verbatim food product name that is either preprinted or collected on a CRF.","Name of Meal","MLTRT","7","Topic","Char","http://id.d4k.dk/dataset/cdisc/sdtm/v3-4/ml/mltrt"
"1804","Perm","","","Used to define a category of MLTRT values.","Category for Meal","MLCAT","8","Grouping Qualifier","Char","http://id.d4k.dk/dataset/cdisc/sdtm/v3-4/ml/mlcat"
"1805","Perm","","","Used to define a further categorization of MLCAT values.","Subcategory for Meal","MLSCAT","9","Grouping Qualifier","Char","http://id.d4k.dk/dataset/cdisc/sdtm/v3-4/ml/mlscat"
"1806","Perm","C66742","","Used when a specific meal is prespecified on a CRF. Values should be ""Y"" or null.","ML Pre-specified","MLPRESP","10","Variable Qualifier","Char","http://id.d4k.dk/dataset/cdisc/sdtm/v3-4/ml/mlpresp"
"1807","Perm","C66742","","Used to record whether a prespecified meal occurred when information about the occurrence of a specific meal is solicited.","ML Occurrence","MLOCCUR","11","Record Qualifier","Char","http://id.d4k.dk/dataset/cdisc/sdtm/v3-4/ml/mloccur"
"1808","Perm","C66789","","Used to indicate when a question about the occurrence of a prespecified meal was not answered. Should be null or have a value of ""NOT DONE"".","Completion Status","MLSTAT","12","Record Qualifier","Char","http://id.d4k.dk/dataset/cdisc/sdtm/v3-4/ml/mlstat"
"1809","Perm","","","Describes the reason a response to a question about the occurrence of a meal was not collected. Used in conjunction with MLSTAT when value is ""NOT DONE"".","Reason Meal Not Collected","MLREASND","13","Record Qualifier","Char","http://id.d4k.dk/dataset/cdisc/sdtm/v3-4/ml/mlreasnd"
"1810","Perm","","","Amount of MLTRT consumed. Not populated when MLDOSTXT is populated.","Dose","MLDOSE","14","Record Qualifier","Num","http://id.d4k.dk/dataset/cdisc/sdtm/v3-4/ml/mldose"
"1811","Perm","","","Amount description of MLTRT consumed, collected in text form. Not populated when MLDOSE is populated. Examples: ""<1 per day"", ""200-400"".","Dose Description","MLDOSTXT","15","Record Qualifier","Char","http://id.d4k.dk/dataset/cdisc/sdtm/v3-4/ml/mldostxt"
"1812","Perm","C71620","","Units for MLDOSE, MLDOSTOT, or MLDOSTXT.","Dose Units","MLDOSU","16","Variable Qualifier","Char","http://id.d4k.dk/dataset/cdisc/sdtm/v3-4/ml/mldosu"
"1813","Perm","C66726","","Dosage form for MLTRT. Example: ""BAR, CHEWABLE"".","Dose Form","MLDOSFRM","17","Variable Qualifier","Char","http://id.d4k.dk/dataset/cdisc/sdtm/v3-4/ml/mldosfrm"
"1814","Perm","","","Clinical encounter number. Numeric version of VISIT, used for sorting.","Visit Number","VISITNUM","18","Timing","Num","http://id.d4k.dk/dataset/cdisc/sdtm/v3-4/ml/visitnum"
"1815","Perm","","","Protocol-defined description of a clinical encounter.","Visit Name","VISIT","19","Timing","Char","http://id.d4k.dk/dataset/cdisc/sdtm/v3-4/ml/visit"
"1816","Perm","","","Planned study day of VISIT. Should be an integer.","Planned Study Day of Visit","VISITDY","20","Timing","Num","http://id.d4k.dk/dataset/cdisc/sdtm/v3-4/ml/visitdy"
"1817","Perm","","","Number that gives the planned order of the element within the arm for the element in which the meal started.","Planned Order of Element within Arm","TAETORD","21","Timing","Num","http://id.d4k.dk/dataset/cdisc/sdtm/v3-4/ml/taetord"
"1818","Perm","C99079","","Epoch associated with the start date/time of the meal.","Epoch","EPOCH","22","Timing","Char","http://id.d4k.dk/dataset/cdisc/sdtm/v3-4/ml/epoch"
"1819","Perm","","ISO 8601 datetime or interval","Collection date and time of the meal represented in ISO 8601 character format.","Date/Time of Collection","MLDTC","23","Timing","Char","http://id.d4k.dk/dataset/cdisc/sdtm/v3-4/ml/mldtc"
"1820","Perm","","ISO 8601 datetime or interval","Start date/time of the meal represented in ISO 8601 character format.","Start Date/Time of Meal","MLSTDTC","24","Timing","Char","http://id.d4k.dk/dataset/cdisc/sdtm/v3-4/ml/mlstdtc"
"1821","Perm","","ISO 8601 datetime or interval","End date/time of the meal represented in ISO 8601 character format.","End Date/Time of Meal","MLENDTC","25","Timing","Char","http://id.d4k.dk/dataset/cdisc/sdtm/v3-4/ml/mlendtc"
"1822","Perm","","","Actual study day of the visit/collection expressed in integer days relative to the sponsor-defined RFSTDTC in Demographics.","Study Day of Visit/Collection/Exam","MLDY","26","Timing","Num","http://id.d4k.dk/dataset/cdisc/sdtm/v3-4/ml/mldy"
"1823","Perm","","","Actual study day of start of the meal expressed in integer days relative to sponsor-defined RFSTDTC in Demographics.","Study Day of Start of Meal","MLSTDY","27","Timing","Num","http://id.d4k.dk/dataset/cdisc/sdtm/v3-4/ml/mlstdy"
"1824","Perm","","","Actual study day of end of the meal expressed in integer days relative to the sponsor-defined RFSTDTC in Demographics.","Study Day of End of Meal","MLENDY","28","Timing","Num","http://id.d4k.dk/dataset/cdisc/sdtm/v3-4/ml/mlendy"
"1825","Perm","","ISO 8601 duration","Collected duration of the meal represented in ISO 8601 character format. Used only if collected on the CRF and not derived.","Duration of Meal","MLDUR","29","Timing","Char","http://id.d4k.dk/dataset/cdisc/sdtm/v3-4/ml/mldur"
"1826","Perm","","","Text description of time when a measurement or observation should be taken as defined in the protocol. This may be represented as an elapsed time relative to a fixed reference point. See MLTPTNUM and MLTPTREF.","Planned Time Point Name","MLTPT","30","Timing","Char","http://id.d4k.dk/dataset/cdisc/sdtm/v3-4/ml/mltpt"
"1827","Perm","","","Numeric version of planned time point used in sorting.","Planned Time Point Number","MLTPTNUM","31","Timing","Num","http://id.d4k.dk/dataset/cdisc/sdtm/v3-4/ml/mltptnum"
"1828","Perm","","ISO 8601 duration","Planned elapsed time (in ISO 8601) relative to the planned fixed reference (MLTPTREF). This variable is useful when there are repetitive measures. Not a clock time or a date/time variable. Represented as an ISO 8601 duration.","Planned Elapsed Time from Time Point Ref","MLELTM","32","Timing","Char","http://id.d4k.dk/dataset/cdisc/sdtm/v3-4/ml/mleltm"
"1829","Perm","","","Description of the fixed reference point referred to by MLELTM, MLTPTNUM, and MLTPT.","Time Point Reference","MLTPTREF","33","Timing","Char","http://id.d4k.dk/dataset/cdisc/sdtm/v3-4/ml/mltptref"
"1830","Perm","","ISO 8601 datetime or interval","Date/time for a fixed reference time point defined by MLTPTREF in ISO 8601 character format.","Date/Time of Reference Time Point","MLRFTDTC","34","Timing","Char","http://id.d4k.dk/dataset/cdisc/sdtm/v3-4/ml/mlrftdtc"
"1831","Perm","","","The name of a specific instance of a disease milestone type (MIDSTYPE) described in the Trial Disease Milestones dataset. This should be unique within a subject. Used only in conjunction with RELMIDS and MIDSDTC.","Disease Milestone Instance Name","MIDS","35","Timing","Char","http://id.d4k.dk/dataset/cdisc/sdtm/v3-4/ml/mids"
"1832","Perm","","","The temporal relationship of the observation to the disease milestone instance name in MIDS. Examples: ""IMMEDIATELY BEFORE"", ""AT TIME OF"", ""AFTER"".","Temporal Relation to Milestone Instance","RELMIDS","36","Timing","Char","http://id.d4k.dk/dataset/cdisc/sdtm/v3-4/ml/relmids"
"1833","Perm","","ISO 8601 datetime or interval","The start date/time of the disease milestone instance name in MIDS, in ISO 8601 format.","Disease Milestone Instance Date/Time","MIDSDTC","37","Timing","Char","http://id.d4k.dk/dataset/cdisc/sdtm/v3-4/ml/midsdtc"
"1834","Req","","","Unique identifier for a study.","Study Identifier","STUDYID","1","Identifier","Char","http://id.d4k.dk/dataset/cdisc/sdtm/v3-4/pr/studyid"
"1835","Req","","","Two-character abbreviation for the domain.","Domain Abbreviation","DOMAIN","2","Identifier","Char","http://id.d4k.dk/dataset/cdisc/sdtm/v3-4/pr/domain"
"1836","Req","","","Identifier used to uniquely identify a subject across all studies for all applications or submissions involving the product.","Unique Subject Identifier","USUBJID","3","Identifier","Char","http://id.d4k.dk/dataset/cdisc/sdtm/v3-4/pr/usubjid"
"1837","Req","","","Sequence number given to ensure uniqueness of subject records within a domain. May be any valid number.","Sequence Number","PRSEQ","4","Identifier","Num","http://id.d4k.dk/dataset/cdisc/sdtm/v3-4/pr/prseq"
"1838","Perm","","","Used to link together a block of related records within a subject in a domain.","Group ID","PRGRPID","5","Identifier","Char","http://id.d4k.dk/dataset/cdisc/sdtm/v3-4/pr/prgrpid"
"1839","Perm","","","Sponsor-defined identifier. Example: preprinted line identifier on a CRF, record identifier defined in the sponsor's operational database.","Sponsor-Defined Identifier","PRSPID","6","Identifier","Char","http://id.d4k.dk/dataset/cdisc/sdtm/v3-4/pr/prspid"
"1840","Perm","","","Used to facilitate identification of relationships between records.","Link ID","PRLNKID","7","Identifier","Char","http://id.d4k.dk/dataset/cdisc/sdtm/v3-4/pr/prlnkid"
"1841","Perm","","","Used to facilitate identification of relationships between records.","Link Group ID","PRLNKGRP","8","Identifier","Char","http://id.d4k.dk/dataset/cdisc/sdtm/v3-4/pr/prlnkgrp"
"1842","Req","","","Name of procedure performed, either preprinted or collected on a CRF.","Reported Name of Procedure","PRTRT","9","Topic","Char","http://id.d4k.dk/dataset/cdisc/sdtm/v3-4/pr/prtrt"
"1843","Perm","C101858","","Standardized or dictionary-derived name of PRTRT. If the codelist ""PROCEDUR"" is not used, the sponsor is expected to provide the dictionary name and version used to map the terms in the external codelist element in the Define-XML document. If an intervention term does not have a decode value, then PRDECOD will be null.","Standardized Procedure Name","PRDECOD","10","Synonym Qualifier","Char","http://id.d4k.dk/dataset/cdisc/sdtm/v3-4/pr/prdecod"
"1844","Perm","","","Used to define a category of procedure values.","Category","PRCAT","11","Grouping Qualifier","Char","http://id.d4k.dk/dataset/cdisc/sdtm/v3-4/pr/prcat"
"1845","Perm","","","Used to define a further categorization of PRCAT values.","Subcategory","PRSCAT","12","Grouping Qualifier","Char","http://id.d4k.dk/dataset/cdisc/sdtm/v3-4/pr/prscat"
"1846","Perm","C66742","","Used when a specific procedure is pre-specified on a CRF. Values should be ""Y"" or null.","Pre-specified","PRPRESP","13","Variable Qualifier","Char","http://id.d4k.dk/dataset/cdisc/sdtm/v3-4/pr/prpresp"
"1847","Perm","C66742","","Used to record whether a prespecified procedure occurred when information about the occurrence of a specific procedure is solicited.","Occurrence","PROCCUR","14","Record Qualifier","Char","http://id.d4k.dk/dataset/cdisc/sdtm/v3-4/pr/proccur"
"1848","Perm","","","Denotes the indication for the procedure (e.g., why the procedure was performed).","Indication","PRINDC","15","Record Qualifier","Char","http://id.d4k.dk/dataset/cdisc/sdtm/v3-4/pr/prindc"
"1849","Perm","","","Amount of PRTRT administered. Not populated when PRDOSTXT is populated.","Dose","PRDOSE","16","Record Qualifier","Num","http://id.d4k.dk/dataset/cdisc/sdtm/v3-4/pr/prdose"
"1850","Perm","","","Dosing information collected in text form. Examples: ""<1"", ""200-400"". Not populated when PRDOSE is populated.","Dose Description","PRDOSTXT","17","Record Qualifier","Char","http://id.d4k.dk/dataset/cdisc/sdtm/v3-4/pr/prdostxt"
"1851","Perm","C71620","","Units for PRDOSE, PRDOSTOT, or PRDOSTXT.","Dose Units","PRDOSU","18","Variable Qualifier","Char","http://id.d4k.dk/dataset/cdisc/sdtm/v3-4/pr/prdosu"
"1852","Perm","C66726","","Dose form for PRTRT.","Dose Form","PRDOSFRM","19","Variable Qualifier","Char","http://id.d4k.dk/dataset/cdisc/sdtm/v3-4/pr/prdosfrm"
"1853","Perm","C71113","","Usually expressed as the number of doses given per a specific interval.","Dosing Frequency per Interval","PRDOSFRQ","20","Record Qualifier","Char","http://id.d4k.dk/dataset/cdisc/sdtm/v3-4/pr/prdosfrq"
"1854","Perm","","","Text description of the intended schedule or regimen for the procedure.","Intended Dose Regimen","PRDOSRGM","21","Record Qualifier","Char","http://id.d4k.dk/dataset/cdisc/sdtm/v3-4/pr/prdosrgm"
"1855","Perm","C66729","","Route of administration for PRTRT.","Route of Administration","PRROUTE","22","Variable Qualifier","Char","http://id.d4k.dk/dataset/cdisc/sdtm/v3-4/pr/prroute"
"1856","Perm","C74456","","Anatomical location of a procedure.","Location of Procedure","PRLOC","23","Record Qualifier","Char","http://id.d4k.dk/dataset/cdisc/sdtm/v3-4/pr/prloc"
"1857","Perm","C99073","","Qualifier for anatomical location or specimen further detailing laterality.","Laterality","PRLAT","24","Variable Qualifier","Char","http://id.d4k.dk/dataset/cdisc/sdtm/v3-4/pr/prlat"
"1858","Perm","C99074","","Qualifier for anatomical location or specimen further detailing directionality.","Directionality","PRDIR","25","Variable Qualifier","Char","http://id.d4k.dk/dataset/cdisc/sdtm/v3-4/pr/prdir"
"1859","Perm","C99075","","Qualifier for anatomical location or specimen further detailing the distribution, which means arrangement of, apportioning of.","Portion or Totality","PRPORTOT","26","Variable Qualifier","Char","http://id.d4k.dk/dataset/cdisc/sdtm/v3-4/pr/prportot"
"1860","Perm","","","Clinical encounter number. Numeric version of VISIT, used for sorting.","Visit Number","VISITNUM","27","Timing","Num","http://id.d4k.dk/dataset/cdisc/sdtm/v3-4/pr/visitnum"
"1861","Perm","","","Protocol-defined description of a clinical encounter.","Visit Name","VISIT","28","Timing","Char","http://id.d4k.dk/dataset/cdisc/sdtm/v3-4/pr/visit"
"1862","Perm","","","Planned study day of VISIT. Should be an integer.","Planned Study Day of Visit","VISITDY","29","Timing","Num","http://id.d4k.dk/dataset/cdisc/sdtm/v3-4/pr/visitdy"
"1863","Perm","","","Number that gives the planned order of the element within the arm.","Planned Order of Element within Arm","TAETORD","30","Timing","Num","http://id.d4k.dk/dataset/cdisc/sdtm/v3-4/pr/taetord"
"1864","Perm","C99079","","Epoch associated with the start date/time of the procedure.","Epoch","EPOCH","31","Timing","Char","http://id.d4k.dk/dataset/cdisc/sdtm/v3-4/pr/epoch"
"1865","Exp","","ISO 8601 datetime or interval","Start date/time of the procedure represented in ISO 8601 character format.","Start Date/Time of Procedure","PRSTDTC","32","Timing","Char","http://id.d4k.dk/dataset/cdisc/sdtm/v3-4/pr/prstdtc"
"1866","Perm","","ISO 8601 datetime or interval","End date/time of the procedure represented in ISO 8601 character format.","End Date/Time of Procedure","PRENDTC","33","Timing","Char","http://id.d4k.dk/dataset/cdisc/sdtm/v3-4/pr/prendtc"
"1867","Perm","","","Study day of start of procedure expressed in integer days relative to the sponsor-defined RFSTDTC in Demographics.","Study Day of Start of Procedure","PRSTDY","34","Timing","Num","http://id.d4k.dk/dataset/cdisc/sdtm/v3-4/pr/prstdy"
"1868","Perm","","","Study day of end of procedure expressed in integer days relative to the sponsor-defined RFSTDTC in Demographics.","Study Day of End of Procedure","PRENDY","35","Timing","Num","http://id.d4k.dk/dataset/cdisc/sdtm/v3-4/pr/prendy"
"1869","Perm","","ISO 8601 duration","Collected duration of a procedure represented in ISO 8601 character format. Used only if collected on the CRF and not derived from start and end date/times.","Duration of Procedure","PRDUR","36","Timing","Char","http://id.d4k.dk/dataset/cdisc/sdtm/v3-4/pr/prdur"
"1870","Perm","","","Text description of time when a procedure should be performed. This may be represented as an elapsed time relative to a fixed reference point, such as time of last dose. See PRTPTNUM and PRTPTREF.","Planned Time Point Name","PRTPT","37","Timing","Char","http://id.d4k.dk/dataset/cdisc/sdtm/v3-4/pr/prtpt"
"1871","Perm","","","Numerical version of planned time point used in sorting.","Planned Time Point Number","PRTPTNUM","38","Timing","Num","http://id.d4k.dk/dataset/cdisc/sdtm/v3-4/pr/prtptnum"
"1872","Perm","","ISO 8601 duration","Planned elapsed time in ISO 8601 format relative to a planned fixed reference (PRTPTREF). This variable is useful where there are repetitive measures. Not a clock time or a date/time variable, but an interval, represented as ISO duration.","Planned Elapsed Time from Time Point Ref","PRELTM","39","Timing","Char","http://id.d4k.dk/dataset/cdisc/sdtm/v3-4/pr/preltm"
"1873","Perm","","","Description of the fixed reference point referred to by PRELTM, PRTPTNUM, and PRTPT.","Time Point Reference","PRTPTREF","40","Timing","Char","http://id.d4k.dk/dataset/cdisc/sdtm/v3-4/pr/prtptref"
"1874","Perm","","ISO 8601 datetime or interval","Date/time for a fixed reference time point defined by PRTRTREF in ISO 8601 character format.","Date/Time of Reference Time Point","PRRFTDTC","41","Timing","Char","http://id.d4k.dk/dataset/cdisc/sdtm/v3-4/pr/prrftdtc"
"1875","Perm","C66728","","Identifies the start of the observation as being before or after the sponsor-defined reference time point defined by variable PRSTTPT. \n Not all values of the codelist are allowable for this variable. See Section 4.4.7, Use of Relative Timing Variables.","Start Relative to Reference Time Point","PRSTRTPT","42","Timing","Char","http://id.d4k.dk/dataset/cdisc/sdtm/v3-4/pr/prstrtpt"
"1876","Perm","","","Description or date/time in ISO 8601 character format of the sponsor-defined reference point referred to by PRSTRTPT. Examples: ""2003-12-15"", ""VISIT 1"".","Start Reference Time Point","PRSTTPT","43","Timing","Char","http://id.d4k.dk/dataset/cdisc/sdtm/v3-4/pr/prsttpt"
"1877","Perm","C66728","","Identifies the end of the observation as being before or after the sponsor-defined reference time point defined by variable PRENTPT. \n Not all values of the codelist are allowable for this variable. See Section 4.4.7, Use of Relative Timing Variables.","End Relative to Reference Time Point","PRENRTPT","44","Timing","Char","http://id.d4k.dk/dataset/cdisc/sdtm/v3-4/pr/prenrtpt"
"1878","Perm","","","Description or date/time in ISO 8601 character format of the sponsor-defined reference point referred to by PRENRTPT. Examples: ""2003-12-25"", ""VISIT 2"".","End Reference Time Point","PRENTPT","45","Timing","Char","http://id.d4k.dk/dataset/cdisc/sdtm/v3-4/pr/prentpt"
"1879","Req","","","Unique identifier for a study.","Study Identifier","STUDYID","1","Identifier","Char","http://id.d4k.dk/dataset/cdisc/sdtm/v3-4/su/studyid"
"1880","Req","","","Two-character abbreviation for the domain.","Domain Abbreviation","DOMAIN","2","Identifier","Char","http://id.d4k.dk/dataset/cdisc/sdtm/v3-4/su/domain"
"1881","Req","","","Identifier used to uniquely identify a subject across all studies for all applications or submissions involving the product.","Unique Subject Identifier","USUBJID","3","Identifier","Char","http://id.d4k.dk/dataset/cdisc/sdtm/v3-4/su/usubjid"
"1882","Req","","","Sequence number given to ensure uniqueness of subject records within a domain. May be any valid number.","Sequence Number","SUSEQ","4","Identifier","Num","http://id.d4k.dk/dataset/cdisc/sdtm/v3-4/su/suseq"
"1883","Perm","","","Used to tie together a block of related records in a single domain for a subject.","Group ID","SUGRPID","5","Identifier","Char","http://id.d4k.dk/dataset/cdisc/sdtm/v3-4/su/sugrpid"
"1884","Perm","","","Sponsor-defined reference number. May be preprinted on the CRF as an explicit line identifier or defined in the sponsor's operational database. Example: Line number on a Tobacco & Alcohol Use CRF page.","Sponsor-Defined Identifier","SUSPID","6","Identifier","Char","http://id.d4k.dk/dataset/cdisc/sdtm/v3-4/su/suspid"
"1885","Req","","","Substance name. Examples: ""CIGARETTES"", ""COFFEE"".","Reported Name of Substance","SUTRT","7","Topic","Char","http://id.d4k.dk/dataset/cdisc/sdtm/v3-4/su/sutrt"
"1886","Perm","","","If SUTRT is modified, then the modified text is placed here.","Modified Substance Name","SUMODIFY","8","Synonym Qualifier","Char","http://id.d4k.dk/dataset/cdisc/sdtm/v3-4/su/sumodify"
"1887","Perm","","","Standardized or dictionary-derived text description of SUTRT or SUMODIFY if the sponsor chooses to code the substance use. The sponsor is expected to provide the dictionary name and version used to map the terms utilizing the external codelist element in the Define-XML document.","Standardized Substance Name","SUDECOD","9","Synonym Qualifier","Char","http://id.d4k.dk/dataset/cdisc/sdtm/v3-4/su/sudecod"
"1888","Perm","","","Used to define a category of related records. Examples: ""TOBACCO"", ""ALCOHOL"", or ""CAFFEINE"".","Category for Substance Use","SUCAT","10","Grouping Qualifier","Char","http://id.d4k.dk/dataset/cdisc/sdtm/v3-4/su/sucat"
"1889","Perm","","","A further categorization of substance use. Examples: ""CIGARS"", ""CIGARETTES"", ""BEER"", ""WINE"".","Subcategory for Substance Use","SUSCAT","11","Grouping Qualifier","Char","http://id.d4k.dk/dataset/cdisc/sdtm/v3-4/su/suscat"
"1890","Perm","C66742","","Used to indicate whether (""Y""/null) information about the use of a specific substance was solicited on the CRF.","SU Pre-Specified","SUPRESP","12","Variable Qualifier","Char","http://id.d4k.dk/dataset/cdisc/sdtm/v3-4/su/supresp"
"1891","Perm","C66742","","When the use of specific substances is solicited, SUOCCUR is used to indicate whether (""Y""/""N"") a particular prespecified substance was used. Values are null for substances not specifically solicited.","SU Occurrence","SUOCCUR","13","Record Qualifier","Char","http://id.d4k.dk/dataset/cdisc/sdtm/v3-4/su/suoccur"
"1892","Perm","C66789","","When the use of prespecified substances is solicited, the completion status indicates that there was no response to the question about the prespecified substance. When there is no prespecified list on the CRF, then the completion status indicates that substance use was not assessed for the subject.","Completion Status","SUSTAT","14","Record Qualifier","Char","http://id.d4k.dk/dataset/cdisc/sdtm/v3-4/su/sustat"
"1893","Perm","","","Describes the reason substance use was not collected. Used in conjunction with SUSTAT when value of SUSTAT is ""NOT DONE"".","Reason Substance Use Not Collected","SUREASND","15","Record Qualifier","Char","http://id.d4k.dk/dataset/cdisc/sdtm/v3-4/su/sureasnd"
"1894","Perm","","","Substance use class. May be obtained from coding. When coding to a single class, populate with class value. If using a dictionary and coding to multiple classes, then follow Section 4.2.8.3, Multiple Values for a Non-result Qualifier Variable, or omit SUCLAS.","Substance Use Class","SUCLAS","16","Variable Qualifier","Char","http://id.d4k.dk/dataset/cdisc/sdtm/v3-4/su/suclas"
"1895","Perm","","","Code corresponding to SUCLAS. May be obtained from coding.","Substance Use Class Code","SUCLASCD","17","Variable Qualifier","Char","http://id.d4k.dk/dataset/cdisc/sdtm/v3-4/su/suclascd"
"1896","Perm","","","Amount of SUTRT consumed. Not populated if SUDOSTXT is populated.","Substance Use Consumption","SUDOSE","18","Record Qualifier","Num","http://id.d4k.dk/dataset/cdisc/sdtm/v3-4/su/sudose"
"1897","Perm","","","Substance use consumption amounts or a range of consumption information collected in text form. Not populated if SUDOSE is populated.","Substance Use Consumption Text","SUDOSTXT","19","Record Qualifier","Char","http://id.d4k.dk/dataset/cdisc/sdtm/v3-4/su/sudostxt"
"1898","Perm","C71620","","Units for SUDOSE, SUDOSTOT, or SUDOSTXT. Examples: ""oz"", ""CIGARETTE"", ""PACK"", ""g"".","Consumption Units","SUDOSU","20","Variable Qualifier","Char","http://id.d4k.dk/dataset/cdisc/sdtm/v3-4/su/sudosu"
"1899","Perm","C66726","","Dose form for SUTRT. Examples: ""INJECTABLE"", ""LIQUID"", ""POWDER"".","Dose Form","SUDOSFRM","21","Variable Qualifier","Char","http://id.d4k.dk/dataset/cdisc/sdtm/v3-4/su/sudosfrm"
"1900","Perm","C71113","","Usually expressed as the number of repeated administrations of SUDOSE within a specific time period. Example: ""Q24H"" (every day).","Use Frequency Per Interval","SUDOSFRQ","22","Variable Qualifier","Char","http://id.d4k.dk/dataset/cdisc/sdtm/v3-4/su/sudosfrq"
"1901","Perm","","","Total daily use of SUTRT using the units in SUDOSU. Used when dosing is collected as total daily dose. If a sponsor needs to aggregate the data over a period other than daily, then the aggregated total could be recorded in a supplemental qualifier variable.","Total Daily Consumption","SUDOSTOT","23","Record Qualifier","Num","http://id.d4k.dk/dataset/cdisc/sdtm/v3-4/su/sudostot"
"1902","Perm","C66729","","Route of administration for SUTRT. Examples: ""ORAL"", ""INTRAVENOUS"".","Route of Administration","SUROUTE","24","Variable Qualifier","Char","http://id.d4k.dk/dataset/cdisc/sdtm/v3-4/su/suroute"
"1903","Perm","","","Number that gives the planned order of the element within the arm for the element in which the substance use started. Null for substances that started before study participation.","Planned Order of Element within Arm","TAETORD","25","Timing","Num","http://id.d4k.dk/dataset/cdisc/sdtm/v3-4/su/taetord"
"1904","Perm","C99079","","Epoch associated with the start date/time of the substance use. Null for substances that started before study participation.","Epoch","EPOCH","26","Timing","Char","http://id.d4k.dk/dataset/cdisc/sdtm/v3-4/su/epoch"
"1905","Perm","","ISO 8601 datetime or interval","Start date/time of the substance use represented in ISO 8601 character format.","Start Date/Time of Substance Use","SUSTDTC","27","Timing","Char","http://id.d4k.dk/dataset/cdisc/sdtm/v3-4/su/sustdtc"
"1906","Perm","","ISO 8601 datetime or interval","End date/time of the substance use represented in ISO 8601 character format.","End Date/Time of Substance Use","SUENDTC","28","Timing","Char","http://id.d4k.dk/dataset/cdisc/sdtm/v3-4/su/suendtc"
"1907","Perm","","","Study day of start of substance use relative to the sponsor-defined RFSTDTC.","Study Day of Start of Substance Use","SUSTDY","29","Timing","Num","http://id.d4k.dk/dataset/cdisc/sdtm/v3-4/su/sustdy"
"1908","Perm","","","Study day of end of substance use relative to the sponsor-defined RFSTDTC.","Study Day of End of Substance Use","SUENDY","30","Timing","Num","http://id.d4k.dk/dataset/cdisc/sdtm/v3-4/su/suendy"
"1909","Perm","","ISO 8601 duration","Collected duration of substance use in ISO 8601 format. Used only if collected on the CRF and not derived from start and end date/times.","Duration of Substance Use","SUDUR","31","Timing","Char","http://id.d4k.dk/dataset/cdisc/sdtm/v3-4/su/sudur"
"1910","Perm","C66728","","Describes the start of the substance use relative to the sponsor-defined reference period. The sponsor-defined reference period is a continuous period of time defined by a discrete starting point and a discrete ending point (represented by RFSTDTC and RFENDTC in Demographics). If information such as ""PRIOR"" was collected, this information may be translated into SUSTRF. \n Not all values of the codelist are allowable for this variable. See Section 4.4.7, Use of Relative Timing Variables.","Start Relative to Reference Period","SUSTRF","32","Timing","Char","http://id.d4k.dk/dataset/cdisc/sdtm/v3-4/su/sustrf"
"1911","Perm","C66728","","Describes the end of the substance use with relative to the sponsor-defined reference period. The sponsor-defined reference period is a continuous period of time defined by a discrete starting point and a discrete ending point (represented by RFSTDTC and RFENDTC in Demographics). If information such as ""PRIOR"", ""ONGOING"", or ""CONTINUING"" was collected, this information may be translated into SUENRF. \n Not all values of the codelist are allowable for this variable. See Section 4.4.7, Use of Relative Timing Variables.","End Relative to Reference Period","SUENRF","33","Timing","Char","http://id.d4k.dk/dataset/cdisc/sdtm/v3-4/su/suenrf"
"1912","Perm","C66728","","Identifies the start of the substance as being before or after the reference time point defined by variable SUSTTPT. \n Not all values of the codelist are allowable for this variable. See Section 4.4.7 , Use of Relative Timing Variables.","Start Relative to Reference Time Point","SUSTRTPT","34","Timing","Char","http://id.d4k.dk/dataset/cdisc/sdtm/v3-4/su/sustrtpt"
"1913","Perm","","","Description or date/time in ISO 8601 character format of the reference point referred to by SUSTRTPT. Examples: ""2003-12-15"", ""VISIT 1"".","Start Reference Time Point","SUSTTPT","35","Timing","Char","http://id.d4k.dk/dataset/cdisc/sdtm/v3-4/su/susttpt"
"1914","Perm","C66728","","Identifies the end of the substance as being before or after the reference time point defined by variable SUENTPT. \n Not all values of the codelist are allowable for this variable. See Section 4.4.7 , Use of Relative Timing Variables.","End Relative to Reference Time Point","SUENRTPT","36","Timing","Char","http://id.d4k.dk/dataset/cdisc/sdtm/v3-4/su/suenrtpt"
"1915","Perm","","","Description or date/time in ISO 8601 character format of the reference point referred to by SUENRTPT. Examples: ""2003-12-25"", ""VISIT 2"".","End Reference Time Point","SUENTPT","37","Timing","Char","http://id.d4k.dk/dataset/cdisc/sdtm/v3-4/su/suentpt"
"1916","Req","","","Unique identifier for a study.","Study Identifier","STUDYID","1","Identifier","Char","http://id.d4k.dk/dataset/cdisc/sdtm/v3-4/ae/studyid"
"1917","Req","","","Two-character abbreviation for the domain.","Domain Abbreviation","DOMAIN","2","Identifier","Char","http://id.d4k.dk/dataset/cdisc/sdtm/v3-4/ae/domain"
"1918","Req","","","Identifier used to uniquely identify a subject across all studies for all applications or submissions involving the product.","Unique Subject Identifier","USUBJID","3","Identifier","Char","http://id.d4k.dk/dataset/cdisc/sdtm/v3-4/ae/usubjid"
"1919","Perm","","","A sequence of characters used by the sponsor to uniquely identify a specific device. Used to represent a device associated in some way with the adverse event. SPDEVID values are defined in the Device Identifiers (DI) domain.","Sponsor Device Identifier","SPDEVID","4","Identifier","Char","http://id.d4k.dk/dataset/cdisc/sdtm/v3-4/ae/spdevid"
"1920","Req","","","Sequence number given to ensure uniqueness of subject records within a domain. May be any valid number.","Sequence Number","AESEQ","5","Identifier","Num","http://id.d4k.dk/dataset/cdisc/sdtm/v3-4/ae/aeseq"
"1921","Perm","","","Used to tie together a block of related records in a single domain for a subject.","Group ID","AEGRPID","6","Identifier","Char","http://id.d4k.dk/dataset/cdisc/sdtm/v3-4/ae/aegrpid"
"1922","Perm","","","Internal or external identifier such as a serial number on an SAE reporting form.","Reference ID","AEREFID","7","Identifier","Char","http://id.d4k.dk/dataset/cdisc/sdtm/v3-4/ae/aerefid"
"1923","Perm","","","Sponsor-defined identifier. It may be preprinted on the CRF as an explicit line identifier or defined in the sponsor's operational database. Example: Line number on an Adverse Events CRF page.","Sponsor-Defined Identifier","AESPID","8","Identifier","Char","http://id.d4k.dk/dataset/cdisc/sdtm/v3-4/ae/aespid"
"1924","Req","","","Verbatim name of the event.","Reported Term for the Adverse Event","AETERM","9","Topic","Char","http://id.d4k.dk/dataset/cdisc/sdtm/v3-4/ae/aeterm"
"1925","Perm","","","If AETERM is modified to facilitate coding, then AEMODIFY will contain the modified text.","Modified Reported Term","AEMODIFY","10","Synonym Qualifier","Char","http://id.d4k.dk/dataset/cdisc/sdtm/v3-4/ae/aemodify"
"1926","Exp","","MedDRA","Dictionary-derived text description of the lowest level term.","Lowest Level Term","AELLT","11","Variable Qualifier","Char","http://id.d4k.dk/dataset/cdisc/sdtm/v3-4/ae/aellt"
"1927","Exp","","MedDRA","Dictionary-derived code for the lowest level term.","Lowest Level Term Code","AELLTCD","12","Variable Qualifier","Num","http://id.d4k.dk/dataset/cdisc/sdtm/v3-4/ae/aelltcd"
"1928","Req","","MedDRA","Dictionary-derived text description of AETERM or AEMODIFY. Equivalent to the Preferred Term (PT in MedDRA). The sponsor is expected to provide the dictionary name and version used to map the terms utilizing the external codelist element in the Define-XML document.","Dictionary-Derived Term","AEDECOD","13","Synonym Qualifier","Char","http://id.d4k.dk/dataset/cdisc/sdtm/v3-4/ae/aedecod"
"1929","Exp","","MedDRA","Dictionary-derived code for the preferred term.","Preferred Term Code","AEPTCD","14","Variable Qualifier","Num","http://id.d4k.dk/dataset/cdisc/sdtm/v3-4/ae/aeptcd"
"1930","Exp","","MedDRA","Dictionary-derived text description of the high level term for the primary system organ class (SOC).","High Level Term","AEHLT","15","Variable Qualifier","Char","http://id.d4k.dk/dataset/cdisc/sdtm/v3-4/ae/aehlt"
"1931","Exp","","MedDRA","Dictionary-derived code for the high level term for the primary SOC.","High Level Term Code","AEHLTCD","16","Variable Qualifier","Num","http://id.d4k.dk/dataset/cdisc/sdtm/v3-4/ae/aehltcd"
"1932","Exp","","MedDRA","Dictionary-derived text description of the high level group term for the primary SOC.","High Level Group Term","AEHLGT","17","Variable Qualifier","Char","http://id.d4k.dk/dataset/cdisc/sdtm/v3-4/ae/aehlgt"
"1933","Exp","","MedDRA","Dictionary-derived code for the high level group term for the primary SOC.","High Level Group Term Code","AEHLGTCD","18","Variable Qualifier","Num","http://id.d4k.dk/dataset/cdisc/sdtm/v3-4/ae/aehlgtcd"
"1934","Perm","","","Used to define a category of related records. Examples: ""BLEEDING"", ""NEUROPSYCHIATRIC"".","Category for Adverse Event","AECAT","19","Grouping Qualifier","Char","http://id.d4k.dk/dataset/cdisc/sdtm/v3-4/ae/aecat"
"1935","Perm","","","A further categorization of adverse event. Example: ""NEUROLOGIC"".","Subcategory for Adverse Event","AESCAT","20","Grouping Qualifier","Char","http://id.d4k.dk/dataset/cdisc/sdtm/v3-4/ae/aescat"
"1936","Perm","C66742","","A value of ""Y"" indicates that this adverse event was prespecified on the CRF. Values are null for spontaneously reported events (i.e., those collected as free-text verbatim terms).","Pre-Specified Adverse Event","AEPRESP","21","Variable Qualifier","Char","http://id.d4k.dk/dataset/cdisc/sdtm/v3-4/ae/aepresp"
"1937","Exp","","","Dictionary derived. Body system or organ class used by the sponsor from the coding dictionary (e.g., MedDRA). When using a multi-axial dictionary such as MedDRA, this should contain the SOC used for the sponsor's analyses and summary tables, which may not necessarily be the primary SOC.","Body System or Organ Class","AEBODSYS","22","Record Qualifier","Char","http://id.d4k.dk/dataset/cdisc/sdtm/v3-4/ae/aebodsys"
"1938","Exp","","MedDRA","Dictionary derived. Code for the body system or organ class used by the sponsor. When using a multi-axial dictionary such as MedDRA, this should contain the SOC used for the sponsor's analyses and summary tables, which may not necessarily be the primary SOC.","Body System or Organ Class Code","AEBDSYCD","23","Variable Qualifier","Num","http://id.d4k.dk/dataset/cdisc/sdtm/v3-4/ae/aebdsycd"
"1939","Exp","","MedDRA","Dictionary-derived text description of the primary SOC. Will be the same as AEBODSYS if the primary SOC was used for analysis.","Primary System Organ Class","AESOC","24","Variable Qualifier","Char","http://id.d4k.dk/dataset/cdisc/sdtm/v3-4/ae/aesoc"
"1940","Exp","","MedDRA","Dictionary-derived code for the primary SOC. Will be the same as AEBDSYCD if the primary SOC was used for analysis.","Primary System Organ Class Code","AESOCCD","25","Variable Qualifier","Num","http://id.d4k.dk/dataset/cdisc/sdtm/v3-4/ae/aesoccd"
"1941","Perm","C74456","","Describes anatomical location relevant for the event (e.g., ""ARM"" for skin rash).","Location of Event","AELOC","26","Record Qualifier","Char","http://id.d4k.dk/dataset/cdisc/sdtm/v3-4/ae/aeloc"
"1942","Perm","C66769","","The severity or intensity of the event. Examples: ""MILD"", ""MODERATE"", ""SEVERE"".","Severity/Intensity","AESEV","27","Record Qualifier","Char","http://id.d4k.dk/dataset/cdisc/sdtm/v3-4/ae/aesev"
"1943","Exp","C66742","","Is this a serious event? Valid values are ""Y"" and ""N"".","Serious Event","AESER","28","Record Qualifier","Char","http://id.d4k.dk/dataset/cdisc/sdtm/v3-4/ae/aeser"
"1944","Exp","C66767","","Describes changes to the study treatment as a result of the event. AEACN is specifically for the relationship to study treatment. AEACNOTH is for actions unrelated to dose adjustments of study treatment. Examples of AEACN values include ICH E2B values: ""DRUG WITHDRAWN"", ""DOSE REDUCED"", ""DOSE INCREASED"", ""DOSE NOT CHANGED"", ""UNKNOWN"" and ""NOT APPLICABLE"".","Action Taken with Study Treatment","AEACN","29","Record Qualifier","Char","http://id.d4k.dk/dataset/cdisc/sdtm/v3-4/ae/aeacn"
"1945","Perm","","","Describes other actions taken as a result of the event that are unrelated to dose adjustments of study treatment. Usually reported as free text. Example: ""TREATMENT UNBLINDED. PRIMARY CARE PHYSICIAN NOTIFIED"".","Other Action Taken","AEACNOTH","30","Record Qualifier","Char","http://id.d4k.dk/dataset/cdisc/sdtm/v3-4/ae/aeacnoth"
"1946","Perm","C111110","","An action taken with a device as the result of the event. The device may or may not be a device under study.","Action Taken with Device","AEACNDEV","31","Record Qualifier","Char","http://id.d4k.dk/dataset/cdisc/sdtm/v3-4/ae/aeacndev"
"1947","Exp","","","Records the investigator's opinion as to the causality of the event to the treatment. ICH does not establish any required or recommended terms for non-device relatedness. ICH E2A and E2B examples include (up-cased here for alignment to SDTM conventions) terms such as ""NOT RELATED"", ""UNLIKELY RELATED"", ""POSSIBLY RELATED"", ""RELATED"", but these example terms do not establish any conventions or expectations. Controlled terminology may be defined in the future. Check with regulatory authority for population of this variable.","Causality","AEREL","32","Record Qualifier","Char","http://id.d4k.dk/dataset/cdisc/sdtm/v3-4/ae/aerel"
"1948","Perm","","","A judgment as to the likelihood that the device caused the adverse event. The relationship is to a device identified in the data (i.e., has an SPDEVID). The device may be ancillary or under study. \n Terminology: \n * In the EU, follow the European Commission Guidelines on Medical Devices, Clinical Investigations: SAE Reporting (MEDDEV 2.7/3) (e.g., Not Related, Unlikely, Possible, Probable, Causal Relationship), with device-specific definitions. \n * No required Controlled Terminology in US.","Relationship of Event to Device","AERLDEV","33","Record Qualifier","Char","http://id.d4k.dk/dataset/cdisc/sdtm/v3-4/ae/aerldev"
"1949","Perm","","","Records the investigator's opinion as to whether the event may have been due to a treatment other than study drug. May be reported as free text. Example: ""MORE LIKELY RELATED TO ASPIRIN USE"".","Relationship to Non-Study Treatment","AERELNST","34","Record Qualifier","Char","http://id.d4k.dk/dataset/cdisc/sdtm/v3-4/ae/aerelnst"
"1950","Perm","","","Used to indicate the pattern of the event over time. Examples: ""INTERMITTENT"", ""CONTINUOUS"", ""SINGLE EVENT"".","Pattern of Adverse Event","AEPATT","35","Record Qualifier","Char","http://id.d4k.dk/dataset/cdisc/sdtm/v3-4/ae/aepatt"
"1951","Perm","C66768","","Description of the outcome of an event.","Outcome of Adverse Event","AEOUT","36","Record Qualifier","Char","http://id.d4k.dk/dataset/cdisc/sdtm/v3-4/ae/aeout"
"1952","Perm","C66742","","Was the serious event associated with the development of cancer? Valid values are ""Y"" and ""N"". This is a legacy seriousness criterion. It is not included in ICH E2A or E2B.","Involves Cancer","AESCAN","37","Record Qualifier","Char","http://id.d4k.dk/dataset/cdisc/sdtm/v3-4/ae/aescan"
"1953","Perm","C66742","","Was the serious event associated with congenital anomaly or birth defect? Valid values are ""Y"" and ""N"".","Congenital Anomaly or Birth Defect","AESCONG","38","Record Qualifier","Char","http://id.d4k.dk/dataset/cdisc/sdtm/v3-4/ae/aescong"
"1954","Perm","C66742","","Did the serious event result in persistent or significant disability/incapacity? Valid values are ""Y"" and ""N"".","Persist or Signif Disability/Incapacity","AESDISAB","39","Record Qualifier","Char","http://id.d4k.dk/dataset/cdisc/sdtm/v3-4/ae/aesdisab"
"1955","Perm","C66742","","Did the serious event result in death? Valid values are ""Y"" and ""N"".","Results in Death","AESDTH","40","Record Qualifier","Char","http://id.d4k.dk/dataset/cdisc/sdtm/v3-4/ae/aesdth"
"1956","Perm","C66742","","Did the serious event require or prolong hospitalization? Valid values are ""Y"" and ""N"".","Requires or Prolongs Hospitalization","AESHOSP","41","Record Qualifier","Char","http://id.d4k.dk/dataset/cdisc/sdtm/v3-4/ae/aeshosp"
"1957","Perm","C66742","","Was the serious event life-threatening? Valid values are ""Y"" and ""N"".","Is Life Threatening","AESLIFE","42","Record Qualifier","Char","http://id.d4k.dk/dataset/cdisc/sdtm/v3-4/ae/aeslife"
"1958","Perm","C66742","","Did the serious event occur with an overdose? Valid values are ""Y"" and ""N"". This is a legacy seriousness criterion. It is not included in ICH E2A or E2B.","Occurred with Overdose","AESOD","43","Record Qualifier","Char","http://id.d4k.dk/dataset/cdisc/sdtm/v3-4/ae/aesod"
"1959","Perm","C66742","","Do additional categories for seriousness apply? Valid values are ""Y"" and ""N"".","Other Medically Important Serious Event","AESMIE","44","Record Qualifier","Char","http://id.d4k.dk/dataset/cdisc/sdtm/v3-4/ae/aesmie"
"1960","Perm","C66742","","Records whether medical or surgical intervention was necessary to preclude permanent impairment of a body function, or to prevent permanent damage to a body structure, with either situation suspected to be due to the use of a medical product. This variable is used in conjunction with the other ""seriousness"" variables (e.g., fatal, life-threatening). It is part of the US federal government definition of a serious adverse event; see 21 CFR Part 803.3(w)(3).","Needs Intervention to Prevent Impairment","AESINTV","45","Record Qualifier","Char","http://id.d4k.dk/dataset/cdisc/sdtm/v3-4/ae/aesintv"
"1961","Perm","C66742","","Any serious adverse effect on health or safety or any life-threatening problem or death caused by or associated with a device, if that effect, problem, or death was not previously identified in nature, severity, or degree of incidence in the investigational plan or application (including a supplementary plan or application), \n or \n any other unanticipated serious problem associated with a device that relates to the rights, safety, or welfare of subjects. (21 CFR Part 812.3(s)). \n This variable applies only to serious AEs and should hold collected data; if the value is derived, it should be held in ADaM.","Unanticipated Adverse Device Effect","AEUNANT","46","Record Qualifier","Char","http://id.d4k.dk/dataset/cdisc/sdtm/v3-4/ae/aeunant"
"1962","Perm","","","The investigator's opinion as to the causality of the event as related to other protocol-required activities, actions, or assessments (e.g., medication changes, tests/assessments, other procedures). The relationship is to a protocol-specified, non-device-related activity where the device is identified in the data (i.e., has an SPDEVID). The device may be ancillary or under study. \n Terminology: \n * In the EU, follow the European Commission Guidelines on Medical Devices, Clinical Investigations: SAE Reporting (MEDDEV 2.7/3) (e.g., Not Related, Unlikely, Possible, Probable, Causal Relationship), with device-specific definitions. \n * No required Controlled Terminology in US.","Rel of AE to Non-Dev-Rel Study Activity","AERLPRT","47","Record Qualifier","Char","http://id.d4k.dk/dataset/cdisc/sdtm/v3-4/ae/aerlprt"
"1963","Perm","","","The investigator's opinion as to the likelihood that the device-related study procedure (e.g., implant/insertion, revision/adjustment, explant/removal) caused the AE. The relationship is to a device-related procedure where the device is identified in the data (i.e., has an SPDEVID). The device may be ancillary or under study. \n Terminology: \n * In the EU, follow the European Commission Guidelines on Medical Devices, Clinical Investigations: SAE Reporting (MEDDEV 2.7/3) (e.g., Not Related, Unlikely, Possible, Probable, Causal Relationship), with device-specific definitions. \n * No required Controlled Terminology in US.","Rel of AE to Device-Related Procedure","AERLPRC","48","Record Qualifier","Char","http://id.d4k.dk/dataset/cdisc/sdtm/v3-4/ae/aerlprc"
"1964","Perm","C66742","","Was another treatment given because of the occurrence of the event? Valid values are ""Y"" and ""N"".","Concomitant or Additional Trtmnt Given","AECONTRT","49","Record Qualifier","Char","http://id.d4k.dk/dataset/cdisc/sdtm/v3-4/ae/aecontrt"
"1965","Perm","","","Toxicity grade according to a standard toxicity scale (e.g., Common Terminology Criteria for Adverse Events, CTCAE). Sponsors should specify the name of the scale and version used in the metadata (see assumption 7d). If value is from a numeric scale, represent only the number (e.g., ""2"", not ""Grade 2"").","Standard Toxicity Grade","AETOXGR","50","Record Qualifier","Char","http://id.d4k.dk/dataset/cdisc/sdtm/v3-4/ae/aetoxgr"
"1966","Perm","","","Number that gives the planned order of the element within the arm.","Planned Order of Element within Arm","TAETORD","51","Timing","Num","http://id.d4k.dk/dataset/cdisc/sdtm/v3-4/ae/taetord"
"1967","Perm","C99079","","Epoch associated with the start date/time of the adverse event. Examples: ""SCREENING"", ""TREATMENT"", ""FOLLOW-UP"".","Epoch","EPOCH","52","Timing","Char","http://id.d4k.dk/dataset/cdisc/sdtm/v3-4/ae/epoch"
"1968","Exp","","ISO 8601 datetime or interval","Start date/time of the adverse event represented in ISO 8601 character format.","Start Date/Time of Adverse Event","AESTDTC","53","Timing","Char","http://id.d4k.dk/dataset/cdisc/sdtm/v3-4/ae/aestdtc"
"1969","Exp","","ISO 8601 datetime or interval","End date/time of the adverse event represented in ISO 8601 character format.","End Date/Time of Adverse Event","AEENDTC","54","Timing","Char","http://id.d4k.dk/dataset/cdisc/sdtm/v3-4/ae/aeendtc"
"1970","Perm","","","Study day of start of adverse event relative to the sponsor-defined RFSTDTC.","Study Day of Start of Adverse Event","AESTDY","55","Timing","Num","http://id.d4k.dk/dataset/cdisc/sdtm/v3-4/ae/aestdy"
"1971","Perm","","","Study day of end of event relative to the sponsor-defined RFSTDTC.","Study Day of End of Adverse Event","AEENDY","56","Timing","Num","http://id.d4k.dk/dataset/cdisc/sdtm/v3-4/ae/aeendy"
"1972","Perm","","ISO 8601 duration","Collected duration and unit of an adverse event. Used only if collected on the CRF and not derived from start and end date/times. Example: ""P1DT2H"" (for 1 day, 2 hours).","Duration of Adverse Event","AEDUR","57","Timing","Char","http://id.d4k.dk/dataset/cdisc/sdtm/v3-4/ae/aedur"
"1973","Perm","C66728","","Describes the end of the event relative to the sponsor-defined reference period. The sponsor-defined reference period is a continuous period of time defined by a discrete starting point (RFSTDTC) and a discrete ending point (RFENDTC) of the trial. \n Not all values of the codelist are allowable for this variable. See Section 4.4.7, Use of Relative Timing Variables.","End Relative to Reference Period","AEENRF","58","Timing","Char","http://id.d4k.dk/dataset/cdisc/sdtm/v3-4/ae/aeenrf"
"1974","Perm","C66728","","Identifies the end of the event as being before or after the reference time point defined by variable AEENTPT. \n Not all values of the codelist are allowable for this variable. See Section 4.4.7, Use of Relative Timing Variables.","End Relative to Reference Time Point","AEENRTPT","59","Timing","Char","http://id.d4k.dk/dataset/cdisc/sdtm/v3-4/ae/aeenrtpt"
"1975","Perm","","","Description of date/time in ISO 8601 character format of the reference point referred to by AEENRTPT. Examples: ""2003-12-25"", ""VISIT 2"".","End Reference Time Point","AEENTPT","60","Timing","Char","http://id.d4k.dk/dataset/cdisc/sdtm/v3-4/ae/aeentpt"
"1976","Req","","","Unique identifier for a study.","Study Identifier","STUDYID","1","Identifier","Char","http://id.d4k.dk/dataset/cdisc/sdtm/v3-4/be/studyid"
"1977","Req","","","Two-character abbreviation for the domain.","Domain Abbreviation","DOMAIN","2","Identifier","Char","http://id.d4k.dk/dataset/cdisc/sdtm/v3-4/be/domain"
"1978","Req","","","Identifier used to uniquely identify a subject across all studies for all applications or submissions involving the product.","Unique Subject Identifier","USUBJID","3","Identifier","Char","http://id.d4k.dk/dataset/cdisc/sdtm/v3-4/be/usubjid"
"1979","Perm","","","Sponsor-defined identifier for a device.","Sponsor Device Identifier","SPDEVID","4","Identifier","Char","http://id.d4k.dk/dataset/cdisc/sdtm/v3-4/be/spdevid"
"1980","Req","","","Sequence number to ensure uniqueness of records within a dataset for a subject. May be any valid number (including decimals) and does not have to start at 1.","Sequence Number","BESEQ","5","Identifier","Num","http://id.d4k.dk/dataset/cdisc/sdtm/v3-4/be/beseq"
"1981","Perm","","","Optional group identifier, used to link together a block of related records within a subject in a domain.","Group ID","BEGRPID","6","Identifier","Char","http://id.d4k.dk/dataset/cdisc/sdtm/v3-4/be/begrpid"
"1982","Exp","","","Internal or external identifier for the specimen affected or created by the event.","Reference ID","BEREFID","7","Identifier","Char","http://id.d4k.dk/dataset/cdisc/sdtm/v3-4/be/berefid"
"1983","Perm","","","Optional sponsor-defined reference number. Example: Line number on a CRF page.","Sponsor-Defined Identifier","BESPID","8","Identifier","Char","http://id.d4k.dk/dataset/cdisc/sdtm/v3-4/be/bespid"
"1984","Req","","","Topic variable for an event observation, which is the verbatim or pre-specified name of the event.","Reported Term for the Biospecimen Event","BETERM","9","Topic","Char","http://id.d4k.dk/dataset/cdisc/sdtm/v3-4/be/beterm"
"1985","Perm","","","If the value for BETERM is modified for coding purposes, then the modified text is placed here.","Modified Reported Term","BEMODIFY","10","Synonym Qualifier","Char","http://id.d4k.dk/dataset/cdisc/sdtm/v3-4/be/bemodify"
"1986","Perm","C124297","","Dictionary-derived text description of BETERM or BEMODIFY, if applicable.","Dictionary-Derived Term","BEDECOD","11","Synonym Qualifier","Char","http://id.d4k.dk/dataset/cdisc/sdtm/v3-4/be/bedecod"
"1987","Perm","","","Used to define a category of topic-variable values. Example: COLLECTION, PREPARATION, TRANSPORT.","Category for Biospecimen Event","BECAT","12","Grouping Qualifier","Char","http://id.d4k.dk/dataset/cdisc/sdtm/v3-4/be/becat"
"1988","Perm","","","A further categorization of BECAT values.","Subcategory for Biospecimen Event","BESCAT","13","Grouping Qualifier","Char","http://id.d4k.dk/dataset/cdisc/sdtm/v3-4/be/bescat"
"1989","Perm","C74456","","Describes the anatomical location relevant for the event (e.g. BRAIN, LUNG).","Anatomical Location of Event","BELOC","14","Record Qualifier","Char","http://id.d4k.dk/dataset/cdisc/sdtm/v3-4/be/beloc"
"1990","Perm","","","Party accountable for the transferable object (e.g. specimen) as a result of the activity performed in the associated BETERM variable. The party could be an individual (e.g., subject), an organization (e.g., sponsor), or a location that is a proxy for an individual or organization (e.g., site). It is usually a somewhat general term that is further identified in the BEPRTYID variable.","Accountable Party","BEPARTY","15","Record Qualifier","Char","http://id.d4k.dk/dataset/cdisc/sdtm/v3-4/be/beparty"
"1991","Perm","","","Identification of the specific party accountable for the transferable object (e.g. Specimen) after the action in BETERM is taken. Used in conjunction with BEPARTY.","Identification of Accountable Party","BEPRTYID","16","Record Qualifier","Char","http://id.d4k.dk/dataset/cdisc/sdtm/v3-4/be/beprtyid"
"1992","Exp","","","Clinical encounter number. Numeric version of VISIT, used for sorting.","Visit Number","VISITNUM","17","Timing","Num","http://id.d4k.dk/dataset/cdisc/sdtm/v3-4/be/visitnum"
"1993","Perm","","","Protocol-defined description of clinical encounter.","Visit Name","VISIT","18","Timing","Char","http://id.d4k.dk/dataset/cdisc/sdtm/v3-4/be/visit"
"1994","Perm","","","Planned study day of VISIT. Should be an integer.","Planned Study Day of Visit","VISITDY","19","Timing","Num","http://id.d4k.dk/dataset/cdisc/sdtm/v3-4/be/visitdy"
"1995","Exp","","ISO 8601 datetime or interval","Date and time of specimen collection.","Date/Time of Specimen Collection","BEDTC","20","Timing","Char","http://id.d4k.dk/dataset/cdisc/sdtm/v3-4/be/bedtc"
"1996","Exp","","ISO 8601 datetime or interval","Start date/time of the event.","Start Date/Time of Biospecimen Event","BESTDTC","21","Timing","Char","http://id.d4k.dk/dataset/cdisc/sdtm/v3-4/be/bestdtc"
"1997","Exp","","ISO 8601 datetime or interval","End date/time of the event.","End Date/Time of Biospecimen Event","BEENDTC","22","Timing","Char","http://id.d4k.dk/dataset/cdisc/sdtm/v3-4/be/beendtc"
"1998","Perm","","","Actual study day of start of observation expressed in integer days relative to the sponsor-defined RFSTDTC in Demographics.","Study Day of Start of Biospecimen Event","BESTDY","23","Timing","Num","http://id.d4k.dk/dataset/cdisc/sdtm/v3-4/be/bestdy"
"1999","Perm","","","Actual study day of end of observation expressed in integer days relative to the sponsor-defined RFSTDTC in Demographics.","Study Day of End of Biospecimen Event","BEENDY","24","Timing","Num","http://id.d4k.dk/dataset/cdisc/sdtm/v3-4/be/beendy"
"2000","Perm","","ISO 8601 duration","Collected duration and unit of a biospecimen event. Used only if collected on the CRF and not derived from start and end date/times. Example: P1DT2H (for 1 day, 2 hours).","Duration of Biospecimen Event","BEDUR","25","Timing","Char","http://id.d4k.dk/dataset/cdisc/sdtm/v3-4/be/bedur"
"2001","Req","","","Unique identifier for a study.","Study Identifier","STUDYID","1","Identifier","Char","http://id.d4k.dk/dataset/cdisc/sdtm/v3-4/ce/studyid"
"2002","Req","","","Two-character abbreviation for the domain.","Domain Abbreviation","DOMAIN","2","Identifier","Char","http://id.d4k.dk/dataset/cdisc/sdtm/v3-4/ce/domain"
"2003","Req","","","Identifier used to uniquely identify a subject across all studies for all applications or submissions involving the product.","Unique Subject Identifier","USUBJID","3","Identifier","Char","http://id.d4k.dk/dataset/cdisc/sdtm/v3-4/ce/usubjid"
"2004","Req","","","Sequence number given to ensure uniqueness of subject records within a domain. May be any valid number.","Sequence Number","CESEQ","4","Identifier","Num","http://id.d4k.dk/dataset/cdisc/sdtm/v3-4/ce/ceseq"
"2005","Perm","","","Used to link together a block of related records for a subject within a domain.","Group ID","CEGRPID","5","Identifier","Char","http://id.d4k.dk/dataset/cdisc/sdtm/v3-4/ce/cegrpid"
"2006","Perm","","","Internal or external identifier (e.g., lab specimen ID, UUID for an ECG waveform or medical image).","Reference ID","CEREFID","6","Identifier","Char","http://id.d4k.dk/dataset/cdisc/sdtm/v3-4/ce/cerefid"
"2007","Perm","","","Sponsor-defined identifier.","Sponsor-Defined Identifier","CESPID","7","Identifier","Char","http://id.d4k.dk/dataset/cdisc/sdtm/v3-4/ce/cespid"
"2008","Req","","","Term for the medical condition or event. Most likely preprinted on CRF.","Reported Term for the Clinical Event","CETERM","8","Topic","Char","http://id.d4k.dk/dataset/cdisc/sdtm/v3-4/ce/ceterm"
"2009","Perm","","","Controlled terminology for the name of the clinical event. The sponsor is expected to provide the dictionary name and version used to map the terms utilizing the external codelist element in the Define-XML document.","Dictionary-Derived Term","CEDECOD","9","Synonym Qualifier","Char","http://id.d4k.dk/dataset/cdisc/sdtm/v3-4/ce/cedecod"
"2010","Perm","","","Used to define a category of related records.","Category for the Clinical Event","CECAT","10","Grouping Qualifier","Char","http://id.d4k.dk/dataset/cdisc/sdtm/v3-4/ce/cecat"
"2011","Perm","","","A further categorization of the condition or event.","Subcategory for the Clinical Event","CESCAT","11","Grouping Qualifier","Char","http://id.d4k.dk/dataset/cdisc/sdtm/v3-4/ce/cescat"
"2012","Perm","C66742","","Used to indicate whether the event in CETERM was prespecified. Value is ""Y"" for prespecified events and null for spontaneously reported events.","Clinical Event Pre-specified","CEPRESP","12","Variable Qualifier","Char","http://id.d4k.dk/dataset/cdisc/sdtm/v3-4/ce/cepresp"
"2013","Perm","C66742","","Used when the occurrence of specific events is solicited, to indicate whether or not a clinical event occurred. Values are null for spontaneously reported events.","Clinical Event Occurrence","CEOCCUR","13","Record Qualifier","Char","http://id.d4k.dk/dataset/cdisc/sdtm/v3-4/ce/ceoccur"
"2014","Perm","C66789","","The status indicates that a question from a prespecified list was not answered.","Completion Status","CESTAT","14","Record Qualifier","Char","http://id.d4k.dk/dataset/cdisc/sdtm/v3-4/ce/cestat"
"2015","Perm","","","Describes the reason clinical event data was not collected. Used in conjunction with CESTAT when value is ""NOT DONE"".","Reason Clinical Event Not Collected","CEREASND","15","Record Qualifier","Char","http://id.d4k.dk/dataset/cdisc/sdtm/v3-4/ce/cereasnd"
"2016","Perm","","","Dictionary-derived. Body system or organ class that is involved in an event or measurement from a standard hierarchy (e.g., MedDRA). When using a multi-axial dictionary such as MedDRA, this should contain the SOC used for the sponsor's analyses and summary tables, which may not necessarily be the primary SOC.","Body System or Organ Class","CEBODSYS","16","Record Qualifier","Char","http://id.d4k.dk/dataset/cdisc/sdtm/v3-4/ce/cebodsys"
"2017","Perm","C165643","","The severity or intensity of the event. Examples: ""MILD"", ""MODERATE"", ""SEVERE"".","Severity/Intensity","CESEV","17","Record Qualifier","Char","http://id.d4k.dk/dataset/cdisc/sdtm/v3-4/ce/cesev"
"2018","Perm","","","Toxicity grade according to a standard toxicity scale (e.g., Common Terminology Criteria for Adverse Events (CTCAE) v3.0). Sponsor should specify name of the scale and version used in the metadata. If value is from a numeric scale, represent only the number (e.g., ""2"", not ""Grade 2"").","Standard Toxicity Grade","CETOXGR","18","Record Qualifier","Char","http://id.d4k.dk/dataset/cdisc/sdtm/v3-4/ce/cetoxgr"
"2019","Perm","","","Number that gives the planned order of the element within the arm for the element in which the clinical event started.","Planned Order of Element within Arm","TAETORD","19","Timing","Num","http://id.d4k.dk/dataset/cdisc/sdtm/v3-4/ce/taetord"
"2020","Perm","C99079","","Epoch associated with the start date/time of the clinical event.","Epoch","EPOCH","20","Timing","Char","http://id.d4k.dk/dataset/cdisc/sdtm/v3-4/ce/epoch"
"2021","Perm","","ISO 8601 datetime or interval","Collection date and time for the clinical event observation represented in ISO 8601 character format.","Date/Time of Event Collection","CEDTC","21","Timing","Char","http://id.d4k.dk/dataset/cdisc/sdtm/v3-4/ce/cedtc"
"2022","Perm","","ISO 8601 datetime or interval","Start date/time of the clinical event represented in ISO 8601 character format.","Start Date/Time of Clinical Event","CESTDTC","22","Timing","Char","http://id.d4k.dk/dataset/cdisc/sdtm/v3-4/ce/cestdtc"
"2023","Perm","","ISO 8601 datetime or interval","End date/time of the clinical event, represented in ISO 8601 character format.","End Date/Time of Clinical Event","CEENDTC","23","Timing","Char","http://id.d4k.dk/dataset/cdisc/sdtm/v3-4/ce/ceendtc"
"2024","Perm","","","Study day of clinical event collection, measured as integer days. Algorithm for calculations must be relative to the sponsor-defined RFSTDTC variable in Demographics. This formula should be consistent across the submission.","Study Day of Event Collection","CEDY","24","Timing","Num","http://id.d4k.dk/dataset/cdisc/sdtm/v3-4/ce/cedy"
"2025","Perm","","","Actual study day of start of the clinical event expressed in integer days relative to the sponsor-defined RFSTDTC in Demographics.","Study Day of Start of Event","CESTDY","25","Timing","Num","http://id.d4k.dk/dataset/cdisc/sdtm/v3-4/ce/cestdy"
"2026","Perm","","","Actual study day of end of the clinical event expressed in integer days relative to the sponsor-defined RFSTDTC in Demographics.","Study Day of End of Event","CEENDY","26","Timing","Num","http://id.d4k.dk/dataset/cdisc/sdtm/v3-4/ce/ceendy"
"2027","Perm","C66728","","Describes the start of the clinical event relative to the sponsor-defined reference period. The sponsor-defined reference period is a continuous period of time defined by a discrete starting point and a discrete ending point (represented by RFSTDTC and RFENDTC in Demographics). \n Not all values of the codelist are allowable for this variable. See Section 4.4.7, Use of Relative Timing Variables.","Start Relative to Reference Period","CESTRF","27","Timing","Char","http://id.d4k.dk/dataset/cdisc/sdtm/v3-4/ce/cestrf"
"2028","Perm","C66728","","Describes the end of the event relative to the sponsor-defined reference period. The sponsor-defined reference period is a continuous period of time defined by a discrete starting point and a discrete ending point (represented by RFSTDTC and RFENDTC in Demographics). \n Not all values of the codelist are allowable for this variable. See Section 4.4.7, Use of Relative Timing Variables.","End Relative to Reference Period","CEENRF","28","Timing","Char","http://id.d4k.dk/dataset/cdisc/sdtm/v3-4/ce/ceenrf"
"2029","Perm","C66728","","Identifies the start of the observation as being before or after the reference time point defined by variable CESTTPT. \n Not all values of the codelist are allowable for this variable. See Section 4.4.7, Use of Relative Timing Variables.","Start Relative to Reference Time Point","CESTRTPT","29","Timing","Char","http://id.d4k.dk/dataset/cdisc/sdtm/v3-4/ce/cestrtpt"
"2030","Perm","","","Description or date/time in ISO 8601 character format of the sponsor-defined reference point referred to by --STRTPT. Examples: ""2003-12-15"", ""VISIT 1"".","Start Reference Time Point","CESTTPT","30","Timing","Char","http://id.d4k.dk/dataset/cdisc/sdtm/v3-4/ce/cesttpt"
"2031","Perm","C66728","","Identifies the end of the observation as being before or after the sponsor-defined reference time point defined by variable CEENTPT. \n Not all values of the codelist are allowable for this variable. See Section 4.4.7, Use of Relative Timing Variables.","End Relative to Reference Time Point","CEENRTPT","31","Timing","Char","http://id.d4k.dk/dataset/cdisc/sdtm/v3-4/ce/ceenrtpt"
"2032","Perm","","","Description or date/time in ISO 8601 character format of the reference point referred to by CEENRTPT. Examples: ""2003-12-25"", ""VISIT 2"".","End Reference Time Point","CEENTPT","32","Timing","Char","http://id.d4k.dk/dataset/cdisc/sdtm/v3-4/ce/ceentpt"
"2033","Req","","","Unique identifier for a study.","Study Identifier","STUDYID","1","Identifier","Char","http://id.d4k.dk/dataset/cdisc/sdtm/v3-4/ds/studyid"
"2034","Req","","","Two-character abbreviation for the domain.","Domain Abbreviation","DOMAIN","2","Identifier","Char","http://id.d4k.dk/dataset/cdisc/sdtm/v3-4/ds/domain"
"2035","Req","","","Identifier used to uniquely identify a subject across all studies for all applications or submissions involving the product.","Unique Subject Identifier","USUBJID","3","Identifier","Char","http://id.d4k.dk/dataset/cdisc/sdtm/v3-4/ds/usubjid"
"2036","Req","","","Sequence number given to ensure uniqueness of subject records within a domain. May be any valid number.","Sequence Number","DSSEQ","4","Identifier","Num","http://id.d4k.dk/dataset/cdisc/sdtm/v3-4/ds/dsseq"
"2037","Perm","","","Used to tie together a block of related records in a single domain for a subject.","Group ID","DSGRPID","5","Identifier","Char","http://id.d4k.dk/dataset/cdisc/sdtm/v3-4/ds/dsgrpid"
"2038","Perm","","","Internal or external identifier.","Reference ID","DSREFID","6","Identifier","Char","http://id.d4k.dk/dataset/cdisc/sdtm/v3-4/ds/dsrefid"
"2039","Perm","","","Sponsor-defined reference number. May be preprinted on the CRF as an explicit line identifier or defined in the sponsor's operational database. Example: Line number on a Disposition page.","Sponsor-Defined Identifier","DSSPID","7","Identifier","Char","http://id.d4k.dk/dataset/cdisc/sdtm/v3-4/ds/dsspid"
"2040","Req","","","Verbatim name of the event or protocol milestone. Some terms in DSTERM will match DSDECOD, but others, such as ""Subject moved"", will map to controlled terminology in DSDECOD, such as ""LOST TO FOLLOW-UP"".","Reported Term for the Disposition Event","DSTERM","8","Topic","Char","http://id.d4k.dk/dataset/cdisc/sdtm/v3-4/ds/dsterm"
"2041","Req","C66727","","Controlled terminology for the name of disposition event or protocol milestone. Examples of protocol milestones: ""INFORMED CONSENT OBTAINED"", ""RANDOMIZED"". There are separate codelists used for DSDECOD where the choice depends on the value of DSCAT. Codelist ""NCOMPLT"" is used for disposition events, codelist ""PROTMLST"" is used for protocol milestones, and codelist ""OTHEVENT"" is used for other events.","Standardized Disposition Term","DSDECOD","9","Synonym Qualifier","Char","http://id.d4k.dk/dataset/cdisc/sdtm/v3-4/ds/dsdecod"
"2042","Exp","C74558","","Used to define a category of related records.","Category for Disposition Event","DSCAT","10","Grouping Qualifier","Char","http://id.d4k.dk/dataset/cdisc/sdtm/v3-4/ds/dscat"
"2043","Perm","C170443","","A further categorization of DSCAT (e.g., ""STUDY PARTICIPATION"", ""STUDY TREATMENT"" when DSCAT = ""DISPOSITION EVENT""). The variable may be subject to controlled terminology for other categories of disposition event records.","Subcategory for Disposition Event","DSSCAT","11","Grouping Qualifier","Char","http://id.d4k.dk/dataset/cdisc/sdtm/v3-4/ds/dsscat"
"2044","Perm","C99079","","Epoch associated with the start date/time of the event.","Epoch","EPOCH","12","Timing","Char","http://id.d4k.dk/dataset/cdisc/sdtm/v3-4/ds/epoch"
"2045","Perm","","ISO 8601 datetime or interval","Collection date and time of the disposition observation represented in ISO 8601 character format.","Date/Time of Collection","DSDTC","13","Timing","Char","http://id.d4k.dk/dataset/cdisc/sdtm/v3-4/ds/dsdtc"
"2046","Exp","","ISO 8601 datetime or interval","Start date/time of the disposition event in ISO 8601 character format.","Start Date/Time of Disposition Event","DSSTDTC","14","Timing","Char","http://id.d4k.dk/dataset/cdisc/sdtm/v3-4/ds/dsstdtc"
"2047","Perm","","","Study day of collection of event relative to the sponsor-defined RFSTDTC.","Study Day of Collection","DSDY","15","Timing","Num","http://id.d4k.dk/dataset/cdisc/sdtm/v3-4/ds/dsdy"
"2048","Exp","","","Study day of start of event relative to the sponsor-defined RFSTDTC.","Study Day of Start of Disposition Event","DSSTDY","16","Timing","Num","http://id.d4k.dk/dataset/cdisc/sdtm/v3-4/ds/dsstdy"
"2049","Req","","","Unique identifier for a study.","Study Identifier","STUDYID","1","Identifier","Char","http://id.d4k.dk/dataset/cdisc/sdtm/v3-4/dv/studyid"
"2050","Req","","","Two-character abbreviation for the domain.","Domain Abbreviation","DOMAIN","2","Identifier","Char","http://id.d4k.dk/dataset/cdisc/sdtm/v3-4/dv/domain"
"2051","Req","","","Identifier used to uniquely identify a subject across all studies for all applications or submissions involving the product.","Unique Subject Identifier","USUBJID","3","Identifier","Char","http://id.d4k.dk/dataset/cdisc/sdtm/v3-4/dv/usubjid"
"2052","Req","","","Sequence number given to ensure uniqueness of subject records within a domain. May be any valid number.","Sequence Number","DVSEQ","4","Identifier","Num","http://id.d4k.dk/dataset/cdisc/sdtm/v3-4/dv/dvseq"
"2053","Perm","","","Internal or external identifier.","Reference ID","DVREFID","5","Identifier","Char","http://id.d4k.dk/dataset/cdisc/sdtm/v3-4/dv/dvrefid"
"2054","Perm","","","Sponsor-defined reference number. May be preprinted on the CRF as an explicit line identifier or defined in the sponsor's operational database. Example: Line number on a CRF page.","Sponsor-Defined Identifier","DVSPID","6","Identifier","Char","http://id.d4k.dk/dataset/cdisc/sdtm/v3-4/dv/dvspid"
"2055","Req","","","Verbatim name of the protocol deviation criterion. Example: ""IVRS PROCESS DEVIATION - NO DOSE CALL PERFORMED"". DVTERM values will map to the controlled terminology in DVDECOD (e.g., ""TREATMENT DEVIATION"").","Protocol Deviation Term","DVTERM","7","Topic","Char","http://id.d4k.dk/dataset/cdisc/sdtm/v3-4/dv/dvterm"
"2056","Perm","","","Controlled terminology for the name of the protocol deviation. Examples: ""SUBJECT NOT WITHDRAWN AS PER PROTOCOL"", ""SELECTION CRITERIA NOT MET"", ""EXCLUDED CONCOMITANT MEDICATION"", ""TREATMENT DEVIATION"".","Protocol Deviation Coded Term","DVDECOD","8","Synonym Qualifier","Char","http://id.d4k.dk/dataset/cdisc/sdtm/v3-4/dv/dvdecod"
"2057","Perm","","","Category of the protocol deviation criterion.","Category for Protocol Deviation","DVCAT","9","Grouping Qualifier","Char","http://id.d4k.dk/dataset/cdisc/sdtm/v3-4/dv/dvcat"
"2058","Perm","","","A further categorization of the protocol deviation.","Subcategory for Protocol Deviation","DVSCAT","10","Grouping Qualifier","Char","http://id.d4k.dk/dataset/cdisc/sdtm/v3-4/dv/dvscat"
"2059","Perm","","","Number that gives the planned order of the element within the arm.","Planned Order of Element within Arm","TAETORD","11","Timing","Num","http://id.d4k.dk/dataset/cdisc/sdtm/v3-4/dv/taetord"
"2060","Perm","C99079","","Epoch associated with the start date/time of the deviation. Examples: ""TREATMENT"", ""SCREENING"", ""FOLLOW-UP"".","Epoch","EPOCH","12","Timing","Char","http://id.d4k.dk/dataset/cdisc/sdtm/v3-4/dv/epoch"
"2061","Perm","","ISO 8601 datetime or interval","Start date/time of deviation represented in ISO 8601 character format.","Start Date/Time of Deviation","DVSTDTC","13","Timing","Char","http://id.d4k.dk/dataset/cdisc/sdtm/v3-4/dv/dvstdtc"
"2062","Perm","","ISO 8601 datetime or interval","End date/time of deviation represented in ISO 8601 character format.","End Date/Time of Deviation","DVENDTC","14","Timing","Char","http://id.d4k.dk/dataset/cdisc/sdtm/v3-4/dv/dvendtc"
"2063","Perm","","","Study day of start of event relative to the sponsor-defined RFSTDTC.","Study Day of Start of Deviation Event","DVSTDY","15","Timing","Num","http://id.d4k.dk/dataset/cdisc/sdtm/v3-4/dv/dvstdy"
"2064","Perm","","","Study day of end of event relative to the sponsor-defined RFSTDTC.","Study Day of End of Deviation Event","DVENDY","16","Timing","Num","http://id.d4k.dk/dataset/cdisc/sdtm/v3-4/dv/dvendy"
"2065","Req","","","Unique identifier for a study.","Study Identifier","STUDYID","1","Identifier","Char","http://id.d4k.dk/dataset/cdisc/sdtm/v3-4/ho/studyid"
"2066","Req","","","Two-character abbreviation for the domain.","Domain Abbreviation","DOMAIN","2","Identifier","Char","http://id.d4k.dk/dataset/cdisc/sdtm/v3-4/ho/domain"
"2067","Req","","","Identifier used to uniquely identify a subject across all studies for all applications or submissions involving the product.","Unique Subject Identifier","USUBJID","3","Identifier","Char","http://id.d4k.dk/dataset/cdisc/sdtm/v3-4/ho/usubjid"
"2068","Req","","","Sequence number given to ensure uniqueness of subject records within a domain. May be any valid number.","Sequence Number","HOSEQ","4","Identifier","Num","http://id.d4k.dk/dataset/cdisc/sdtm/v3-4/ho/hoseq"
"2069","Perm","","","Used to tie together a block of related records in a single domain for a subject.","Group ID","HOGRPID","5","Identifier","Char","http://id.d4k.dk/dataset/cdisc/sdtm/v3-4/ho/hogrpid"
"2070","Perm","","","Internal or external healthcare encounter identifier.","Reference ID","HOREFID","6","Identifier","Char","http://id.d4k.dk/dataset/cdisc/sdtm/v3-4/ho/horefid"
"2071","Perm","","","Sponsor-defined identifier. May be preprinted on the CRF as an explicit line identifier or defined in the sponsor's operational database. Example: Line number on a Healthcare Encounters CRF page.","Sponsor-Defined Identifier","HOSPID","7","Identifier","Char","http://id.d4k.dk/dataset/cdisc/sdtm/v3-4/ho/hospid"
"2072","Req","","","Verbatim or preprinted CRF term for the healthcare encounter.","Healthcare Encounter Term","HOTERM","8","Topic","Char","http://id.d4k.dk/dataset/cdisc/sdtm/v3-4/ho/hoterm"
"2073","Perm","C171444","","Dictionary or sponsor-defined derived text description of HOTERM or the modified topic variable (HOMODIFY).","Dictionary-Derived Term","HODECOD","9","Synonym Qualifier","Char","http://id.d4k.dk/dataset/cdisc/sdtm/v3-4/ho/hodecod"
"2074","Perm","","","Used to define a category of topic-related values.","Category for Healthcare Encounter","HOCAT","10","Grouping Qualifier","Char","http://id.d4k.dk/dataset/cdisc/sdtm/v3-4/ho/hocat"
"2075","Perm","","","A further categorization of HOCAT values.","Subcategory for Healthcare Encounter","HOSCAT","11","Grouping Qualifier","Char","http://id.d4k.dk/dataset/cdisc/sdtm/v3-4/ho/hoscat"
"2076","Perm","C66742","","A value of ""Y"" indicates that this healthcare encounter event was prespecified on the CRF. Values are null for spontaneously reported events (i.e., those collected as free-text verbatim terms).","Pre-Specified Healthcare Encounter","HOPRESP","12","Variable Qualifier","Char","http://id.d4k.dk/dataset/cdisc/sdtm/v3-4/ho/hopresp"
"2077","Perm","C66742","","Used when the occurrence of specific healthcare encounters is solicited, to indicate whether an encounter occurred. Values are null for spontaneously reported events.","Healthcare Encounter Occurrence","HOOCCUR","13","Record Qualifier","Char","http://id.d4k.dk/dataset/cdisc/sdtm/v3-4/ho/hooccur"
"2078","Perm","C66789","","The status indicates that the prespecified question was not answered.","Completion Status","HOSTAT","14","Record Qualifier","Char","http://id.d4k.dk/dataset/cdisc/sdtm/v3-4/ho/hostat"
"2079","Perm","","","Describes the reason data for a prespecified event were not collected. Used in conjunction with HOSTAT when value is ""NOT DONE"".","Reason Healthcare Encounter Not Done","HOREASND","15","Record Qualifier","Char","http://id.d4k.dk/dataset/cdisc/sdtm/v3-4/ho/horeasnd"
"2080","Perm","","","Number that gives the planned order of the element within the arm.","Planned Order of Element within Arm","TAETORD","16","Timing","Num","http://id.d4k.dk/dataset/cdisc/sdtm/v3-4/ho/taetord"
"2081","Perm","C99079","","Epoch associated with the start date/time of the healthcare encounter. Examples: ""SCREENING"", ""TREATMENT"", ""FOLLOW-UP"".","Epoch","EPOCH","17","Timing","Char","http://id.d4k.dk/dataset/cdisc/sdtm/v3-4/ho/epoch"
"2082","Perm","","ISO 8601 datetime or interval","Collection date and time of the healthcare encounter.","Date/Time of Event Collection","HODTC","18","Timing","Char","http://id.d4k.dk/dataset/cdisc/sdtm/v3-4/ho/hodtc"
"2083","Exp","","ISO 8601 datetime or interval","Start date/time of the healthcare encounter (e.g., date of admission).","Start Date/Time of Healthcare Encounter","HOSTDTC","19","Timing","Char","http://id.d4k.dk/dataset/cdisc/sdtm/v3-4/ho/hostdtc"
"2084","Perm","","ISO 8601 datetime or interval","End date/time of the healthcare encounter (e.g., date of discharge).","End Date/Time of Healthcare Encounter","HOENDTC","20","Timing","Char","http://id.d4k.dk/dataset/cdisc/sdtm/v3-4/ho/hoendtc"
"2085","Perm","","","Study day of event collection relative to the sponsor-defined RFSTDTC.","Study Day of Event Collection","HODY","21","Timing","Num","http://id.d4k.dk/dataset/cdisc/sdtm/v3-4/ho/hody"
"2086","Perm","","","Study day of the start of the healthcare encounter relative to the sponsor-defined RFSTDTC.","Study Day of Start of Encounter","HOSTDY","22","Timing","Num","http://id.d4k.dk/dataset/cdisc/sdtm/v3-4/ho/hostdy"
"2087","Perm","","","Study day of the end of the healthcare encounter relative to the sponsor-defined RFSTDTC.","Study Day of End of Healthcare Encounter","HOENDY","23","Timing","Num","http://id.d4k.dk/dataset/cdisc/sdtm/v3-4/ho/hoendy"
"2088","Perm","","ISO 8601 duration","Collected duration of the healthcare encounter. Used only if collected on the CRF and not derived from the start and end date/times. Example: ""P1DT2H"" (for 1 day, 2 hours).","Duration of Healthcare Encounter","HODUR","24","Timing","Char","http://id.d4k.dk/dataset/cdisc/sdtm/v3-4/ho/hodur"
"2089","Perm","C66728","","Identifies the start of the observation as being before or after the sponsor-defined reference time point defined by variable --STTPT. \n Not all values of the codelist are allowable for this variable. See Section 4.4.7, Use of Relative Timing Variables.","Start Relative to Reference Time Point","HOSTRTPT","25","Timing","Char","http://id.d4k.dk/dataset/cdisc/sdtm/v3-4/ho/hostrtpt"
"2090","Perm","","","Description or date/time in ISO 8601 character format of the sponsor-defined reference point referred to by STRTPT. Examples: ""2003-12-15"", ""VISIT 1"".","Start Reference Time Point","HOSTTPT","26","Timing","Char","http://id.d4k.dk/dataset/cdisc/sdtm/v3-4/ho/hosttpt"
"2091","Perm","C66728","","Identifies the end of the event as being before or after the reference time point defined by variable HOENTPT. \n Not all values of the codelist are allowable for this variable. See Section 4.4.7, Use of Relative Timing Variables.","End Relative to Reference Time Point","HOENRTPT","27","Timing","Char","http://id.d4k.dk/dataset/cdisc/sdtm/v3-4/ho/hoenrtpt"
"2092","Perm","","","Description or date/time in ISO 8601 character format of the reference point referred to by HOENRTPT. Examples: ""2003-12-25"", ""VISIT 2"".","End Reference Time Point","HOENTPT","28","Timing","Char","http://id.d4k.dk/dataset/cdisc/sdtm/v3-4/ho/hoentpt"
"2093","Req","","","Unique identifier for a study.","Study Identifier","STUDYID","1","Identifier","Char","http://id.d4k.dk/dataset/cdisc/sdtm/v3-4/mh/studyid"
"2094","Req","","","Two-character abbreviation for the domain.","Domain Abbreviation","DOMAIN","2","Identifier","Char","http://id.d4k.dk/dataset/cdisc/sdtm/v3-4/mh/domain"
"2095","Req","","","Identifier used to uniquely identify a subject across all studies for all applications or submissions involving the product.","Unique Subject Identifier","USUBJID","3","Identifier","Char","http://id.d4k.dk/dataset/cdisc/sdtm/v3-4/mh/usubjid"
"2096","Req","","","Sequence number given to ensure uniqueness of subject records within a domain. May be any valid number.","Sequence Number","MHSEQ","4","Identifier","Num","http://id.d4k.dk/dataset/cdisc/sdtm/v3-4/mh/mhseq"
"2097","Perm","","","Used to tie together a block of related records in a single domain for a subject.","Group ID","MHGRPID","5","Identifier","Char","http://id.d4k.dk/dataset/cdisc/sdtm/v3-4/mh/mhgrpid"
"2098","Perm","","","Internal or external medical history identifier.","Reference ID","MHREFID","6","Identifier","Char","http://id.d4k.dk/dataset/cdisc/sdtm/v3-4/mh/mhrefid"
"2099","Perm","","","Sponsor-defined reference number. May be preprinted on the CRF as an explicit line identifier or defined in the sponsor's operational database. Example: Line number on a Medical History CRF page.","Sponsor-Defined Identifier","MHSPID","7","Identifier","Char","http://id.d4k.dk/dataset/cdisc/sdtm/v3-4/mh/mhspid"
"2100","Req","","","Verbatim or preprinted CRF term for the medical condition or event.","Reported Term for the Medical History","MHTERM","8","Topic","Char","http://id.d4k.dk/dataset/cdisc/sdtm/v3-4/mh/mhterm"
"2101","Perm","","","If MHTERM is modified to facilitate coding, then MHMODIFY will contain the modified text.","Modified Reported Term","MHMODIFY","9","Synonym Qualifier","Char","http://id.d4k.dk/dataset/cdisc/sdtm/v3-4/mh/mhmodify"
"2102","Perm","","","Dictionary-derived text description of MHTERM or MHMODIFY. Equivalent to the Preferred Term (PT in MedDRA). The sponsor is expected to provide the dictionary name and version used to map the terms utilizing the external codelist element in the Define-XML document.","Dictionary-Derived Term","MHDECOD","10","Synonym Qualifier","Char","http://id.d4k.dk/dataset/cdisc/sdtm/v3-4/mh/mhdecod"
"2103","Perm","C124301","","Specifies the aspect of the medical condition or event by which MHSTDTC and/or the MHENDTC is defined. Examples: ""DIAGNOSIS"", ""SYMPTOMS"", ""RELAPSE"", ""INFECTION"".","Medical History Event Date Type","MHEVDTYP","11","Variable Qualifier","Char","http://id.d4k.dk/dataset/cdisc/sdtm/v3-4/mh/mhevdtyp"
"2104","Perm","","","Used to define a category of related records. Examples: ""CARDIAC"", ""GENERAL"".","Category for Medical History","MHCAT","12","Grouping Qualifier","Char","http://id.d4k.dk/dataset/cdisc/sdtm/v3-4/mh/mhcat"
"2105","Perm","","","A further categorization of the condition or event.","Subcategory for Medical History","MHSCAT","13","Grouping Qualifier","Char","http://id.d4k.dk/dataset/cdisc/sdtm/v3-4/mh/mhscat"
"2106","Perm","C66742","","A value of ""Y"" indicates that this medical history event was prespecified on the CRF. Values are null for spontaneously reported events (i.e., those collected as free-text verbatim terms).","Medical History Event Pre-Specified","MHPRESP","14","Variable Qualifier","Char","http://id.d4k.dk/dataset/cdisc/sdtm/v3-4/mh/mhpresp"
"2107","Perm","C66742","","Used when the occurrence of specific medical history conditions is solicited, to indicate whether (""Y""/""N"") a medical condition (MHTERM) had ever occurred. Values are null for spontaneously reported events.","Medical History Occurrence","MHOCCUR","15","Record Qualifier","Char","http://id.d4k.dk/dataset/cdisc/sdtm/v3-4/mh/mhoccur"
"2108","Perm","C66789","","The status indicates that the prespecified question was not asked/answered.","Completion Status","MHSTAT","16","Record Qualifier","Char","http://id.d4k.dk/dataset/cdisc/sdtm/v3-4/mh/mhstat"
"2109","Perm","","","Describes the reason why data for a prespecified condition was not collected. Used in conjunction with MHSTAT when value is ""NOT DONE"".","Reason Medical History Not Collected","MHREASND","17","Record Qualifier","Char","http://id.d4k.dk/dataset/cdisc/sdtm/v3-4/mh/mhreasnd"
"2110","Perm","","","Dictionary-derived. Body system or organ class that is involved in an event or measurement from a standard hierarchy (e.g., MedDRA). When using a multi-axial dictionary such as MedDRA, this should contain the SOC used for the sponsor's analyses and summary tables which may not necessarily be the primary SOC.","Body System or Organ Class","MHBODSYS","18","Record Qualifier","Char","http://id.d4k.dk/dataset/cdisc/sdtm/v3-4/mh/mhbodsys"
"2111","Perm","","","Number that gives the planned order of the element within the arm for the element in which the assessment was made.","Planned Order of Element within Arm","TAETORD","19","Timing","Num","http://id.d4k.dk/dataset/cdisc/sdtm/v3-4/mh/taetord"
"2112","Perm","C99079","","Epoch associated with the start date/time of the medical history event.","Epoch","EPOCH","20","Timing","Char","http://id.d4k.dk/dataset/cdisc/sdtm/v3-4/mh/epoch"
"2113","Perm","","ISO 8601 datetime or interval","Collection date and time of the medical history observation represented in ISO 8601 character format.","Date/Time of History Collection","MHDTC","21","Timing","Char","http://id.d4k.dk/dataset/cdisc/sdtm/v3-4/mh/mhdtc"
"2114","Perm","","ISO 8601 datetime or interval","Start date/time of the medical history event represented in ISO 8601 character format.","Start Date/Time of Medical History Event","MHSTDTC","22","Timing","Char","http://id.d4k.dk/dataset/cdisc/sdtm/v3-4/mh/mhstdtc"
"2115","Perm","","ISO 8601 datetime or interval","End date/time of the medical history event.","End Date/Time of Medical History Event","MHENDTC","23","Timing","Char","http://id.d4k.dk/dataset/cdisc/sdtm/v3-4/mh/mhendtc"
"2116","Perm","","","Study day of medical history collection, measured as integer day. Algorithm for calculations must be relative to the sponsor-defined RFSTDTC variable in Demographics. This formula should be consistent across the submission.","Study Day of History Collection","MHDY","24","Timing","Num","http://id.d4k.dk/dataset/cdisc/sdtm/v3-4/mh/mhdy"
"2117","Perm","C66728","","Describes the end of the event relative to the sponsor-defined reference period. The sponsor-defined reference period is a continuous period of time defined by a discrete starting point and a discrete ending point (represented by RFSTDTC and RFENDTC in Demographics). \n Not all values of the codelist are allowable for this variable. See Section 4.4.7, Use of Relative Timing Variables.","End Relative to Reference Period","MHENRF","25","Timing","Char","http://id.d4k.dk/dataset/cdisc/sdtm/v3-4/mh/mhenrf"
"2118","Perm","C66728","","Identifies the end of the event as being before or after the reference time point defined by variable MHENTPT. \n Not all values of the codelist are allowable for this variable. See Section 4.4.7, Use of Relative Timing Variables.","End Relative to Reference Time Point","MHENRTPT","26","Timing","Char","http://id.d4k.dk/dataset/cdisc/sdtm/v3-4/mh/mhenrtpt"
"2119","Perm","","","Description or date/time in ISO 8601 character format of the reference point referred to by MHENRTPT. Examples: ""2003-12-25"", ""VISIT 2"".","End Reference Time Point","MHENTPT","27","Timing","Char","http://id.d4k.dk/dataset/cdisc/sdtm/v3-4/mh/mhentpt"
"2120","Req","","","Unique identifier for a study.","Study Identifier","STUDYID","1","Identifier","Char","http://id.d4k.dk/dataset/cdisc/sdtm/v3-4/bs/studyid"
"2121","Req","","","Two-character abbreviation for the domain.","Domain Abbreviation","DOMAIN","2","Identifier","Char","http://id.d4k.dk/dataset/cdisc/sdtm/v3-4/bs/domain"
"2122","Req","","","Identifier used to uniquely identify a subject across all studies for all applications or submissions involving the product.","Unique Subject Identifier","USUBJID","3","Identifier","Char","http://id.d4k.dk/dataset/cdisc/sdtm/v3-4/bs/usubjid"
"2123","Perm","","","Sponsor-defined identifier for a device.","Sponsor Device Identifier","SPDEVID","4","Identifier","Char","http://id.d4k.dk/dataset/cdisc/sdtm/v3-4/bs/spdevid"
"2124","Req","","","Sequence number given to ensure uniqueness within a dataset for a subject. May be any valid number (including decimals) and does not have to start at 1.","Sequence Number","BSSEQ","5","Identifier","Num","http://id.d4k.dk/dataset/cdisc/sdtm/v3-4/bs/bsseq"
"2125","Perm","","","Optional group identifier, used to link together a block of related records within a subject in a domain.","Group ID","BSGRPID","6","Identifier","Char","http://id.d4k.dk/dataset/cdisc/sdtm/v3-4/bs/bsgrpid"
"2126","Exp","","","Internal or external identifier such as lab specimen ID.","Reference ID","BSREFID","7","Identifier","Char","http://id.d4k.dk/dataset/cdisc/sdtm/v3-4/bs/bsrefid"
"2127","Perm","","","Sponsor-defined identifier.","Sponsor-Defined Identifier","BSSPID","8","Identifier","Char","http://id.d4k.dk/dataset/cdisc/sdtm/v3-4/bs/bsspid"
"2128","Req","C124300","","Short character value for BSTEST used as a column name when converting a dataset from a vertical format to a horizontal format. The short value can be up to 8 characters. Examples: VOLUME, RIN.","Biospecimen Test Short Name","BSTESTCD","9","Topic","Char","http://id.d4k.dk/dataset/cdisc/sdtm/v3-4/bs/bstestcd"
"2129","Req","C124299","","Long name for BSTESTCD. Examples: Volume, RNA Integrity Number.","Biospecimen Test Name","BSTEST","10","Synonym Qualifier","Char","http://id.d4k.dk/dataset/cdisc/sdtm/v3-4/bs/bstest"
"2130","Exp","","","Used to define a category of topic-variable values. Example: MEASUREMENT, QUALITY.","Category for Biospecimen Test","BSCAT","11","Grouping Qualifier","Char","http://id.d4k.dk/dataset/cdisc/sdtm/v3-4/bs/bscat"
"2131","Perm","","","Used to define a further categorization of BSCAT values.","Subcategory for Biospecimen Test","BSSCAT","12","Grouping Qualifier","Char","http://id.d4k.dk/dataset/cdisc/sdtm/v3-4/bs/bsscat"
"2132","Exp","","","Result of the measurement or finding as originally received or collected.","Result or Finding in Original Units","BSORRES","13","Result Qualifier","Char","http://id.d4k.dk/dataset/cdisc/sdtm/v3-4/bs/bsorres"
"2133","Exp","C71620","","Unit for BSORRES. Examples: mg, mL.","Original Units","BSORRESU","14","Variable Qualifier","Char","http://id.d4k.dk/dataset/cdisc/sdtm/v3-4/bs/bsorresu"
"2134","Exp","","","Contains the result value for all findings, copied or derived from BSORRES in a standard format or standard units. BSSTRESC should store all results or findings in character format; if results are numeric, they should also be stored in numeric format in BSSTRESN.","Character Result/Finding in Std Format","BSSTRESC","15","Result Qualifier","Char","http://id.d4k.dk/dataset/cdisc/sdtm/v3-4/bs/bsstresc"
"2135","Exp","","","Used for continuous or numeric results or findings in standard format; copied in numeric format from BSSTRESC. BSSTRESN should store all numeric test results or findings.","Numeric Result/Finding in Standard Units","BSSTRESN","16","Result Qualifier","Num","http://id.d4k.dk/dataset/cdisc/sdtm/v3-4/bs/bsstresn"
"2136","Exp","C71620","","Standardized unit used for BSSTRESC and BSSTRESN.","Standard Units","BSSTRESU","17","Variable Qualifier","Char","http://id.d4k.dk/dataset/cdisc/sdtm/v3-4/bs/bsstresu"
"2137","Perm","C66789","","Used to indicate that a test was not done, or was attempted but did not generate a result. Should be null or have a value of NOT DONE.","Completion Status","BSSTAT","18","Record Qualifier","Char","http://id.d4k.dk/dataset/cdisc/sdtm/v3-4/bs/bsstat"
"2138","Perm","","","Reason not done. Used in conjunction with BSSTAT when value is NOT DONE.","Reason Test Not Done","BSREASND","19","Record Qualifier","Char","http://id.d4k.dk/dataset/cdisc/sdtm/v3-4/bs/bsreasnd"
"2139","Perm","","","Name or identifier of the vendor (e.g., laboratory) that provided the test results.","Vendor Name","BSNAM","20","Record Qualifier","Char","http://id.d4k.dk/dataset/cdisc/sdtm/v3-4/bs/bsnam"
"2140","Perm","C78734","","Defines the type of specimen used for a measurement. Examples: SERUM, PLASMA, URINE, SOFT TISSUE.","Specimen Type","BSSPEC","21","Record Qualifier","Char","http://id.d4k.dk/dataset/cdisc/sdtm/v3-4/bs/bsspec"
"2141","Perm","","","Defines the specific anatomical or biological region of a tissue, organ specimen or the region from which the specimen is obtained, as defined in the protocol, such as a section or part of what is described in the BSSPEC variable. Examples: CORTEX, MEDULLA, MUCOSA.","Anatomical Region of Specimen","BSANTREG","22","Variable Qualifier","Char","http://id.d4k.dk/dataset/cdisc/sdtm/v3-4/bs/bsantreg"
"2142","Perm","C78733","","Defines the condition of the specimen. Examples: HEMOLYZED, ICTERIC, LIPEMIC.","Specimen Condition","BSSPCCND","23","Record Qualifier","Char","http://id.d4k.dk/dataset/cdisc/sdtm/v3-4/bs/bsspccnd"
"2143","Perm","C85492","","Method of the test or examination. Examples: SPECTROPHOTOMETRY, ELECTROPHORESIS.","Method of Test or Examination","BSMETHOD","24","Record Qualifier","Char","http://id.d4k.dk/dataset/cdisc/sdtm/v3-4/bs/bsmethod"
"2144","Perm","C66742","","Indicator used to identify a baseline value.","Baseline Flag","BSBLFL","25","Record Qualifier","Char","http://id.d4k.dk/dataset/cdisc/sdtm/v3-4/bs/bsblfl"
"2145","Exp","","","Clinical encounter number. Numeric version of VISIT, used for sorting.","Visit Number","VISITNUM","26","Timing","Num","http://id.d4k.dk/dataset/cdisc/sdtm/v3-4/bs/visitnum"
"2146","Perm","","","Protocol-defined description of clinical encounter.","Visit Name","VISIT","27","Timing","Char","http://id.d4k.dk/dataset/cdisc/sdtm/v3-4/bs/visit"
"2147","Perm","","","Planned study day of VISIT. Should be an integer.","Planned Study Day of Visit","VISITDY","28","Timing","Num","http://id.d4k.dk/dataset/cdisc/sdtm/v3-4/bs/visitdy"
"2148","Exp","","ISO 8601 datetime or interval","Date and time of specimen collection.","Date/Time of Specimen Collection","BSDTC","29","Timing","Char","http://id.d4k.dk/dataset/cdisc/sdtm/v3-4/bs/bsdtc"
"2149","Perm","","","Study day of specimen collection relative to the sponsor-defined RFSTDTC.","Study Day of Specimen Collection","BSDY","30","Timing","Num","http://id.d4k.dk/dataset/cdisc/sdtm/v3-4/bs/bsdy"
"2150","Perm","","","Text description of time when a measurement or observation should be taken as defined in the protocol. This may be represented as an elapsed time relative to a fixed reference point, such as time of last dose. See BSTPTNUM and BSTPTREF.","Planned Time Point Name","BSTPT","31","Timing","Char","http://id.d4k.dk/dataset/cdisc/sdtm/v3-4/bs/bstpt"
"2151","Perm","","","Numerical version of BSTPT used in sorting.","Planned Time Point Number","BSTPTNUM","32","Timing","Num","http://id.d4k.dk/dataset/cdisc/sdtm/v3-4/bs/bstptnum"
"2152","Perm","","ISO 8601 duration","Elapsed time relative to a planned fixed reference (BSTPTREF). This variable is useful where there are repetitive measures. Not a clock time or a date time variable, but an interval, represented as ISO duration.","Planned Elapsed Time from Time Point Ref","BSELTM","33","Timing","Char","http://id.d4k.dk/dataset/cdisc/sdtm/v3-4/bs/bseltm"
"2153","Perm","","","Name of the fixed reference point referred to by BSELTM, BSTPTNUM, and BSTPT. Examples: PREVIOUS DOSE, PREVIOUS MEAL.","Time Point Reference","BSTPTREF","34","Timing","Char","http://id.d4k.dk/dataset/cdisc/sdtm/v3-4/bs/bstptref"
"2154","Perm","","ISO 8601 datetime or interval","Date/time for a fixed reference time point defined by BSTPTREF.","Date/Time of Reference Time Point","BSRFTDTC","35","Timing","Char","http://id.d4k.dk/dataset/cdisc/sdtm/v3-4/bs/bsrftdtc"
"2155","Req","","","Unique identifier for a study.","Study Identifier","STUDYID","1","Identifier","Char","http://id.d4k.dk/dataset/cdisc/sdtm/v3-4/cp/studyid"
"2156","Req","","","Two-character abbreviation for the domain.","Domain Abbreviation","DOMAIN","2","Identifier","Char","http://id.d4k.dk/dataset/cdisc/sdtm/v3-4/cp/domain"
"2157","Req","","","Identifier used to uniquely identify a subject across all studies for all applications or submissions involving the product.","Unique Subject Identifier","USUBJID","3","Identifier","Char","http://id.d4k.dk/dataset/cdisc/sdtm/v3-4/cp/usubjid"
"2158","Req","","","Sequence number to ensure uniqueness of subject records within a domain. May be any valid number.","Sequence Number","CPSEQ","4","Identifier","Num","http://id.d4k.dk/dataset/cdisc/sdtm/v3-4/cp/cpseq"
"2159","Perm","","","Used to tie together a block of related records in a single domain for a subject.","Group ID","CPGRPID","5","Identifier","Char","http://id.d4k.dk/dataset/cdisc/sdtm/v3-4/cp/cpgrpid"
"2160","Perm","","","Internal or external specimen identifier.","Reference ID","CPREFID","6","Identifier","Char","http://id.d4k.dk/dataset/cdisc/sdtm/v3-4/cp/cprefid"
"2161","Perm","","","Sponsor-defined reference number. May be preprinted on the CRF as an explicit line identifier or defined in the sponsor's operational database. Example: Line number on the lab page.","Sponsor-Defined Identifier","CPSPID","7","Identifier","Char","http://id.d4k.dk/dataset/cdisc/sdtm/v3-4/cp/cpspid"
"2162","Perm","","","Identifier used to link related records across domains. This may be a one-to-one or a one-to-many relationship.","Link ID","CPLNKID","8","Identifier","Char","http://id.d4k.dk/dataset/cdisc/sdtm/v3-4/cp/cplnkid"
"2163","Perm","","","Identifier used to link related records across domains. This will usually be a many-to-one relationship.","Link Group ID","CPLNKGRP","9","Identifier","Char","http://id.d4k.dk/dataset/cdisc/sdtm/v3-4/cp/cplnkgrp"
"2164","Req","C181173","","Short name of the measurement, test, or examination described in CPTEST. It can be used as a column name when converting a dataset from a vertical to a horizontal format. The value in CPTESTCD cannot be longer than 8 characters, nor can it start with a number (e.g., ""1TEST"" is not valid). CPTESTCD cannot contain characters other than letters, numbers, or underscores. Examples: ""MONO"", ""MNS"".","Test or Examination Short Name","CPTESTCD","10","Topic","Char","http://id.d4k.dk/dataset/cdisc/sdtm/v3-4/cp/cptestcd"
"2165","Req","C181174","","Long name for CPTESTCD. For cell phenotyping, the name (often abbreviated) of the cell population, as it is generally accepted by the scientific community, is populated (rather than a colloquial designation based on a primary marker, e.g., TLym Help rather than CD4). When the test is for a sublineage which can only be identified by specifying additional markers (i.e., has not been given a name) or which is further restricted to a subpopulation based on a particular cell state (e.g., activated, proliferating, apoptotic), the Sublineage Marker String (CPSBMRKS), Cell State (CPCELSTA), and Cell State Marker String (CPCSMRKS) variables are additionally populated and the value in CPTEST is suffixed with ""Sub"" to denote that it is a subset of the population identified in CPTEST (e.g., Monocytes Sub). \n The value in CPTEST cannot be longer than 40 characters.","Name of Measurement, Test or Examination","CPTEST","11","Synonym Qualifier","Char","http://id.d4k.dk/dataset/cdisc/sdtm/v3-4/cp/cptest"
"2166","Perm","","","Used to further subset the cell population identified in CPTEST based on the use of additional marker(s) that define a sublineage. The value in CPSBMRKS is used in combination with values in CPTEST and CPCELSTA to fully describe the cell population being measured. As such, it is an essential component of the full test name. \n For example, three unnamed sublineages of monocytes have been identified as: CCR2+CD16-, CCR2-CD16+, and CCR2+CD16+. Whereas the entire monocyte cell population can be defined as CD14+ cells, the additional CCR2 and CD16 markers are used to differentiate one sublineage from another. As none of these sublineages have been given names, they are only known by the CCR2 and CD16 marker combinations. By associating the CPTEST value of ""Monocytes Sub"" with, for example, a value of ""CCR2+CD16-"" in CPSBMRKS, the full test is defined to be the CCR2+CD16- monocyte subpopulation.","Sublineage Marker String","CPSBMRKS","12","Variable Qualifier","Char","http://id.d4k.dk/dataset/cdisc/sdtm/v3-4/cp/cpsbmrks"
"2167","Perm","C181172","","A textual description of a subset of the cell population identified in CPTEST based on a particular functional and/or biological state (e.g., ""ACTIVATED"", ""PROLIFERATING"", ""SENESCENT""). When populated, the values in CPCELSTA and CPSMRKS, in combination with the values in CPTEST and CPSBMRKS, fully describe the cell population being measured.","Cell State","CPCELSTA","13","Variable Qualifier","Char","http://id.d4k.dk/dataset/cdisc/sdtm/v3-4/cp/cpcelsta"
"2168","Perm","","","Identifies the marker(s) or indicator(s) used to define the cell state (i.e., the value in CPCELSTA). \n For example, when Ki67 expression is used to determine that a cell population is in a proliferating state (i.e., CPCELSTA value=""PROLIFERATING""), the value ""Ki67+"" in CPCSMRKS indicates that positive expression of Ki67 was used to define the population as proliferating. Similarly, a value of ""Ki67-"" in CPCSMRKS would indicate that lack of expression of Ki67 defined the ""NON-PROLIFERATING"" cell state in CPCELSTA. The CPCSMRKS value is useful for quickly determining which marker(s) were used to classify (i.e., operationally define) a cell population based on a functional/biological state.","Cell State Marker String","CPCSMRKS","14","Variable Qualifier","Char","http://id.d4k.dk/dataset/cdisc/sdtm/v3-4/cp/cpcsmrks"
"2169","Perm","C181175","","Identifies any planned condition imposed by the assay system on the specimen at the time the test is performed. --TSTCND is generally used to distinguish between two or more records where the same assay is performed under varying (as opposed to fixed) conditions, usually for the purpose of making a comparison. For example, when the same assay (identified in --TEST) is performed under stimulated and non-stimulated conditions, the --TSTCND variable is used distinguish between the records.","Test Condition","CPTSTCND","15","Variable Qualifier","Char","http://id.d4k.dk/dataset/cdisc/sdtm/v3-4/cp/cptstcnd"
"2170","Perm","","","The textual description of the agent, if applicable, used to impose the condition identified in CPTSTCND. For example, records might be produced for the same assay run under stimulating (CPTSTCND value = ""STIMULATED"") conditions produced by different stimulating agents (e.g., phorbol myristate acetate, concanavalin A, PHA-P, TNF-alpha, Ionomycin, candida antigen).","Test Condition Agent","CPCNDAGT","16","Record Qualifier","Char","http://id.d4k.dk/dataset/cdisc/sdtm/v3-4/cp/cpcndagt"
"2171","Perm","","","The textual description of the agent that is binding to the entity in the CPTEST variable. The CPBDAGNT variable is used to indicate that there is a binding relationship between the entities in the CPTEST and CPBDAGNT variables, regardless of direction. \n The binding agent may be, but is not limited to, a test article; a portion of a test article; a substance related to a test article; an endogenous molecule; an allergen; an infectious agent; or a reagent (e.g., primary antibody) that confers the binding specificity for the measurement defined in CPTEST when it is needed to uniquely identify the test.","Binding Agent","CPBDAGNT","17","Record Qualifier","Char","http://id.d4k.dk/dataset/cdisc/sdtm/v3-4/cp/cpbdagnt"
"2172","Perm","","","Identifies the antibody clone (e.g., supplier-provided catalog name) used to confer specificity for the binding agent specified in CPBDAGNT.","Antibody Clone Identifier","CPABCLID","18","Record Qualifier","Char","http://id.d4k.dk/dataset/cdisc/sdtm/v3-4/cp/cpabclid"
"2173","Exp","","","The text string identifying the full set of markers/indicators used by the laboratory to operationally define the complete test based on the combination of CPTEST, CPSBMRKS, and CPCELSTA. Because laboratories often use different markers/indicators to identify a cell population, the relationship between a named cell population in CPTEST (as combined with CPSBMRKS and CPCELSTA values) and the set of markers used to identify that population is many-to-one. To ensure nuances important for accurately interpreting the data are accounted for and which arise from the use of different sets of markers, it is necessary to operationally define the test in terms of the complete set of markers/indicators used to perform that test.","Marker String","CPMRKSTR","19","Record Qualifier","Char","http://id.d4k.dk/dataset/cdisc/sdtm/v3-4/cp/cpmrkstr"
"2174","Perm","","","The sponsor-defined name assigned to a gate. Gates are electronic (i.e., a device setting or software-defined) boundaries set by a user to virtually parse a specimen into discrete populations based on a set of defined characteristics (e.g., presence, absence, or intensity of expression of various markers; physical size; internal complexity or granularity). Gates are used to constrain data collection or analysis to a specific cell population or region of interest within the specimen.","Gate","CPGATE","20","Record Qualifier","Char","http://id.d4k.dk/dataset/cdisc/sdtm/v3-4/cp/cpgate"
"2175","Perm","","","The text string identifying the set of parameters and the order in which they are applied to define the gating strategy. In practice, a series of 2-dimensional sub-gates based on different cell characteristics (i.e., markers/indicators/physical properties) are most often combined until the cell population of interest is sufficiently resolved (i.e., electronically isolated) from other cell populations contained within the specimen. \n For complex analyses, differences in gating strategies can produce subtle differences in results obtained for a test. To ensure nuances important for accurately interpreting the data are accounted for and which arise from the use of different gating strategies, it is often necessary to qualify the test in terms of the gating strategy. For some purposes, however, and at the discretion of the sponsor, only the ultimate or penultimate gate is identified. When specifying the gating strategy in CPGATDEF, each sub-gate should be listed in the order it was applied and separated from the next sub-gate using the pipe/vertical line (""|"") character.","Gate Definition","CPGATDEF","21","Record Qualifier","Char","http://id.d4k.dk/dataset/cdisc/sdtm/v3-4/cp/cpgatdef"
"2176","Perm","","","Sponsor's description of a test. The variable is intended to contain highly structured test description metadata used by a sponsor to unambiguously define (label) a test. Such values generally reside in a sponsor/laboratory test metadata repository. CPSPTSTD is not intended for unstructured (spontaneous) free text. \n An example of appropriate usage is when it is necessary to include identifying information for a target cell population on which a test is conducted when the target population is not part of the test name, e.g., tests for quantitative expression of a particular marker on a specific cell population.","Sponsor Test Description","CPSPTSTD","22","Record Qualifier","Char","http://id.d4k.dk/dataset/cdisc/sdtm/v3-4/cp/cpsptstd"
"2177","Perm","C181171","","Used to define a category of topic-variable values across subjects. Examples: ""IMMUNOPHENOTYPING"", ""CELL FUNCTION"", ""TARGET ENGAGEMENT"".","Category","CPCAT","23","Grouping Qualifier","Char","http://id.d4k.dk/dataset/cdisc/sdtm/v3-4/cp/cpcat"
"2178","Perm","","","A further categorization of CPCAT.","Subcategory","CPSCAT","24","Grouping Qualifier","Char","http://id.d4k.dk/dataset/cdisc/sdtm/v3-4/cp/cpscat"
"2179","Perm","","","Sponsor-defined textual description used to group tests run together as part of a test panel. Can be used with --GRPID to ensure that relationships between associated tests are accurately identified.","Test Panel","CPTSTPNL","25","Grouping Qualifier","Char","http://id.d4k.dk/dataset/cdisc/sdtm/v3-4/cp/cptstpnl"
"2180","Exp","","","Result of the measurement or finding as originally received or collected.","Result or Finding in Original Units","CPORRES","26","Result Qualifier","Char","http://id.d4k.dk/dataset/cdisc/sdtm/v3-4/cp/cporres"
"2181","Perm","C71620","","Original units in which the data were collected. The unit for CPORRES. Examples: ""10^6/L"", ""%"", ""MESF"".","Original Units","CPORRESU","27","Variable Qualifier","Char","http://id.d4k.dk/dataset/cdisc/sdtm/v3-4/cp/cporresu"
"2182","Perm","C177910","","Classifies the scale of the original result value with respect to whether the result is quantitative, ordinal, nominal, or narrative.","Result Scale","CPRESSCL","28","Record Qualifier","Char","http://id.d4k.dk/dataset/cdisc/sdtm/v3-4/cp/cpresscl"
"2183","Perm","C179588","","Classifies the kind of result (i.e., property type) originally reported for the test. Examples: ""NUMBER CONCENTRATION"", ""NUMBER FRACTION"", ""RATIO"".","Result Type","CPRESTYP","29","Record Qualifier","Char","http://id.d4k.dk/dataset/cdisc/sdtm/v3-4/cp/cprestyp"
"2184","Perm","C177908","","Used to indicate the type of collected summary result. This includes source summary results collected on a CRF or provided by an external vendor (e.g., central lab). If the summary result is derived using individual source data records, this summary result should be represented in ADaM. If a sponsor has both a collected summary result and a derived summary result, the collected summary result should be represented in SDTM and the derived summary result should be represented in ADaM.","Collected Summary Result Type","CPCOLSRT","30","Record Qualifier","Char","http://id.d4k.dk/dataset/cdisc/sdtm/v3-4/cp/cpcolsrt"
"2185","Perm","","","Lower end of reference range for continuous measurement in original units. Should be populated only for continuous results.","Reference Range Lower Limit in Orig Unit","CPORNRLO","31","Variable Qualifier","Char","http://id.d4k.dk/dataset/cdisc/sdtm/v3-4/cp/cpornrlo"
"2186","Perm","","","Upper end of reference range for continuous measurement in original units. Should be populated only for continuous results.","Reference Range Upper Limit in Orig Unit","CPORNRHI","32","Variable Qualifier","Char","http://id.d4k.dk/dataset/cdisc/sdtm/v3-4/cp/cpornrhi"
"2187","Exp","","","Contains the result value for all findings, copied or derived from CPORRES in a standard format or in standard units. CPSTRESC should store all results or findings in character format; if results are numeric, they should also be stored in numeric format in CPSTRESN.","Result or Finding in Standard Format","CPSTRESC","33","Result Qualifier","Char","http://id.d4k.dk/dataset/cdisc/sdtm/v3-4/cp/cpstresc"
"2188","Perm","","","Used for continuous or numeric results or findings in standard format; copied in numeric format from CPSTRESC. CPSTRESN should store all numeric test results or findings.","Numeric Result/Finding in Standard Units","CPSTRESN","34","Result Qualifier","Num","http://id.d4k.dk/dataset/cdisc/sdtm/v3-4/cp/cpstresn"
"2189","Perm","C71620","","Standardized unit used for CPSTRESC or CPSTRESN.","Standard Units","CPSTRESU","35","Variable Qualifier","Char","http://id.d4k.dk/dataset/cdisc/sdtm/v3-4/cp/cpstresu"
"2190","Perm","","","Lower end of reference range for continuous measurements for CPSTRESC/CPSTRESN in standardized units. Should be populated only for continuous results.","Reference Range Lower Limit-Std Units","CPSTNRLO","36","Variable Qualifier","Num","http://id.d4k.dk/dataset/cdisc/sdtm/v3-4/cp/cpstnrlo"
"2191","Perm","","","Upper end of reference range for continuous measurements in standardized units. Should be populated only for continuous results.","Reference Range Upper Limit-Std Units","CPSTNRHI","37","Variable Qualifier","Num","http://id.d4k.dk/dataset/cdisc/sdtm/v3-4/cp/cpstnrhi"
"2192","Perm","C78736","","Indicates where the value falls with respect to reference range defined by CPORNRLO and CPORNRHI, CPSTNRLO and CPSTNRHI, or by CPSTNRC. Examples: ""NORMAL"", ""ABNORMAL"", ""HIGH"", ""LOW"". Sponsors should specify in the study metadata (Comments column in the Define-XML document) whether CPNRIND refers to the original or standard reference ranges and results. CPNRIND should not be used to indicate clinical significance.","Reference Range Indicator","CPNRIND","38","Variable Qualifier","Char","http://id.d4k.dk/dataset/cdisc/sdtm/v3-4/cp/cpnrind"
"2193","Perm","C66789","","Used to indicate that the test was not performed or that it was attempted but did not generate a result. Should be null if a result exists in CPORRES.","Completion Status","CPSTAT","39","Record Qualifier","Char","http://id.d4k.dk/dataset/cdisc/sdtm/v3-4/cp/cpstat"
"2194","Perm","","","Describes why a test was not performed, e.g., ""BROKEN EQUIPMENT"", ""SUBJECT REFUSED"", ""SPECIMEN LOST"". Used in conjunction with CPSTAT when value is ""NOT DONE"".","Reason Not Done","CPREASND","40","Record Qualifier","Char","http://id.d4k.dk/dataset/cdisc/sdtm/v3-4/cp/cpreasnd"
"2195","Perm","","","The name or identifier of the laboratory that performed the test.","Vendor Name","CPNAM","41","Record Qualifier","Char","http://id.d4k.dk/dataset/cdisc/sdtm/v3-4/cp/cpnam"
"2196","Perm","","LOINC","Code for the test from the LOINC code system. The sponsor is expected to provide the dictionary name and version used to map the terms utilizing the Define-XML external codelist attributes.","LOINC Code","CPLOINC","42","Synonym Qualifier","Char","http://id.d4k.dk/dataset/cdisc/sdtm/v3-4/cp/cploinc"
"2197","Perm","C78734","","Defines the type of specimen used for a measurement. Examples: ""BLOOD"", ""BONE MARROW"".","Specimen Type","CPSPEC","43","Record Qualifier","Char","http://id.d4k.dk/dataset/cdisc/sdtm/v3-4/cp/cpspec"
"2198","Perm","C78733","","The physical state or quality of a specimen for an assessment. Example: ""CLOTTED"".","Specimen Condition","CPSPCCND","44","Record Qualifier","Char","http://id.d4k.dk/dataset/cdisc/sdtm/v3-4/cp/cpspccnd"
"2199","Perm","C85492","","Method of the test or examination. Example: ""FLOW CYTOMETRY"".","Method of Test or Examination","CPMETHOD","45","Record Qualifier","Char","http://id.d4k.dk/dataset/cdisc/sdtm/v3-4/cp/cpmethod"
"2200","Perm","","","Analysis method applied to obtain a summarized result. Analysis method describes the method of secondary processing applied to a complex observation result.","Analysis Method","CPANMETH","46","Record Qualifier","Char","http://id.d4k.dk/dataset/cdisc/sdtm/v3-4/cp/cpanmeth"
"2201","Perm","C66742","","Operationally-derived indicator used to identify the last non-missing value prior to RFXSTDTC. The value should be ""Y"" or null.","Last Observation Before Exposure Flag","CPLOBXFL","47","Record Qualifier","Char","http://id.d4k.dk/dataset/cdisc/sdtm/v3-4/cp/cplobxfl"
"2202","Perm","C66742","","Indicator used to identify a baseline value. The value should be ""Y"" or null.","Baseline Flag","CPBLFL","48","Record Qualifier","Char","http://id.d4k.dk/dataset/cdisc/sdtm/v3-4/cp/cpblfl"
"2203","Perm","C66742","","Used to indicate a derived record. The value should be ""Y"" or null. Records that represent the average of other records, or do not come from the CRF, or are not as originally received or collected are examples of records that might be derived for the submission datasets. If CPDRVFL = ""Y"", then CPORRES may be null, with CPSTRESC and (if numeric) CPSTRESN having the derived value.","Derived Flag","CPDRVFL","49","Record Qualifier","Char","http://id.d4k.dk/dataset/cdisc/sdtm/v3-4/cp/cpdrvfl"
"2204","Perm","C66742","","Used to indicate whether a collected observation is clinically significant based on judgement.","Clinically Significant, Collected","CPCLSIG","50","Record Qualifier","Char","http://id.d4k.dk/dataset/cdisc/sdtm/v3-4/cp/cpclsig"
"2205","Perm","","","Clinical encounter number. Numeric version of VISIT, used for sorting.","Visit Number","VISITNUM","51","Timing","Num","http://id.d4k.dk/dataset/cdisc/sdtm/v3-4/cp/visitnum"
"2206","Perm","","","Protocol-defined description of clinical encounter. May be used in addition to VISITNUM and/or VISITDY.","Visit Name","VISIT","52","Timing","Char","http://id.d4k.dk/dataset/cdisc/sdtm/v3-4/cp/visit"
"2207","Perm","","","Planned study day of the visit based upon RFSTDTC in Demographics. Should be an integer.","Planned Study Day of Visit","VISITDY","53","Timing","Num","http://id.d4k.dk/dataset/cdisc/sdtm/v3-4/cp/visitdy"
"2208","Perm","","","Number that gives the planned order of the element within the arm.","Planned Order of Element within Arm","TAETORD","54","Timing","Num","http://id.d4k.dk/dataset/cdisc/sdtm/v3-4/cp/taetord"
"2209","Perm","C99079","","Epoch associated with the start date/time of the observation, or the date/time of collection if start date/time is not collected.","Epoch","EPOCH","55","Timing","Char","http://id.d4k.dk/dataset/cdisc/sdtm/v3-4/cp/epoch"
"2210","Exp","","ISO 8601 datetime or interval","Date/time of specimen collection represented in ISO 8601 character format.","Date/Time of Collection","CPDTC","56","Timing","Char","http://id.d4k.dk/dataset/cdisc/sdtm/v3-4/cp/cpdtc"
"2211","Perm","","","Study day of specimen collection, measured in integer days. Algorithm for calculations must be relative to the sponsor-defined RFSTDTC value in Demographics.","Study Day of Visit/Collection/Exam","CPDY","57","Timing","Num","http://id.d4k.dk/dataset/cdisc/sdtm/v3-4/cp/cpdy"
"2212","Perm","","","Text description of time when a specimen is to be taken, as defined in the protocol. This may be represented as an elapsed time relative to a fixed reference point (i.e., to the value in CPTPTREF). Example: ""1 hour post"".","Planned Time Point Name","CPTPT","58","Timing","Char","http://id.d4k.dk/dataset/cdisc/sdtm/v3-4/cp/cptpt"
"2213","Perm","","","Numerical version of CPTPT to aid in sorting. When CPTPT is represented as an elapsed time relative to a fixed reference point (i.e., to the value in CPTPTREF), the values in CPTPTNUM should be assigned in ascending order relative to the value in CPTPTREF. For example, records for time points where CPTPT = ""5 minutes post"", 1 hour post"", and ""4 hours post"" could be represented in CPTPTNUM as ""1"", ""2"", and ""3"", which maintains the order between CPTPT and CPTPTNUM with respect to the fixed time point reference in CPTPTREF.","Planned Time Point Number","CPTPTNUM","59","Timing","Num","http://id.d4k.dk/dataset/cdisc/sdtm/v3-4/cp/cptptnum"
"2214","Perm","","ISO 8601 duration","Planned elapsed time relative to the planned fixed reference value in CPTPTREF, represented in ISO 8601 duration format. Examples: ""-PT15M"" to represent 15 minutes prior to the reference time point indicated by CPTPTREF, ""T8H"" to represent 8 hours after the reference time point represented by CPTPTREF.","Planned Elapsed Time from Time Point Ref","CPELTM","60","Timing","Char","http://id.d4k.dk/dataset/cdisc/sdtm/v3-4/cp/cpeltm"
"2215","Perm","","","Descriptive name of the fixed reference point referred to by CPTPT, CPTPTNUM, and CPELTM. Examples: ""PREVIOUS DOSE"", ""PREVIOUS MEAL"".","Time Point Reference","CPTPTREF","61","Timing","Char","http://id.d4k.dk/dataset/cdisc/sdtm/v3-4/cp/cptptref"
"2216","Perm","","ISO 8601 datetime or interval","Date/time for a fixed reference time point defined by CPTPTREF.","Date/Time of Reference Time Point","CPRFTDTC","62","Timing","Char","http://id.d4k.dk/dataset/cdisc/sdtm/v3-4/cp/cprftdtc"
"2217","Req","","","Unique identifier for a study.","Study Identifier","STUDYID","1","Identifier","Char","http://id.d4k.dk/dataset/cdisc/sdtm/v3-4/cv/studyid"
"2218","Req","","","Two-character abbreviation for the domain.","Domain Abbreviation","DOMAIN","2","Identifier","Char","http://id.d4k.dk/dataset/cdisc/sdtm/v3-4/cv/domain"
"2219","Req","","","Identifier used to uniquely identify a subject across all studies for all applications or submissions involving the product.","Unique Subject Identifier","USUBJID","3","Identifier","Char","http://id.d4k.dk/dataset/cdisc/sdtm/v3-4/cv/usubjid"
"2220","Req","","","Sequence number to ensure uniqueness of records within a dataset for a subject. May be any valid number (including decimals) and does not have to start at 1.","Sequence Number","CVSEQ","4","Identifier","Num","http://id.d4k.dk/dataset/cdisc/sdtm/v3-4/cv/cvseq"
"2221","Perm","","","Optional group identifier, used to link together a block of related records within a subject in a domain.","Group ID","CVGRPID","5","Identifier","Char","http://id.d4k.dk/dataset/cdisc/sdtm/v3-4/cv/cvgrpid"
"2222","Perm","","","Optional internal or external identifier.","Reference ID","CVREFID","6","Identifier","Char","http://id.d4k.dk/dataset/cdisc/sdtm/v3-4/cv/cvrefid"
"2223","Perm","","","Sponsor-defined identifier. Example: a preprinted line identifier on a CRF.","Sponsor-Defined Identifier","CVSPID","7","Identifier","Char","http://id.d4k.dk/dataset/cdisc/sdtm/v3-4/cv/cvspid"
"2224","Perm","","","Identifier used to link related records across domains. This may be a one-to-one or a one-to-many relationship.","Link ID","CVLNKID","8","Identifier","Char","http://id.d4k.dk/dataset/cdisc/sdtm/v3-4/cv/cvlnkid"
"2225","Perm","","","Identifier used to link related records across domains. This will usually be a many-to-one relationship.","Link Group","CVLNKGRP","9","Identifier","Char","http://id.d4k.dk/dataset/cdisc/sdtm/v3-4/cv/cvlnkgrp"
"2226","Req","C101847","","Short name of the measurement, test, or examination described in CVTEST. It can be used as a column name when converting a dataset from a vertical to a horizontal format. The value in CVTESTCD cannot be longer than 8 characters, nor can it start with a number (e.g., ""1TEST"" would not be valid). CVTESTCD cannot contain characters other than letters, numbers, or underscores.","Short Name of Cardiovascular Test","CVTESTCD","10","Topic","Char","http://id.d4k.dk/dataset/cdisc/sdtm/v3-4/cv/cvtestcd"
"2227","Req","C101846","","Long name For CVTESTCD. The value in CVTEST cannot be longer than 40 characters.","Name of Cardiovascular Test","CVTEST","11","Synonym Qualifier","Char","http://id.d4k.dk/dataset/cdisc/sdtm/v3-4/cv/cvtest"
"2228","Perm","","","Used to define a category of topic-variable values.","Category for Cardiovascular Test","CVCAT","12","Grouping Qualifier","Char","http://id.d4k.dk/dataset/cdisc/sdtm/v3-4/cv/cvcat"
"2229","Perm","","","Used to define a further categorization of CVCAT values.","Subcategory for Cardiovascular Test","CVSCAT","13","Grouping Qualifier","Char","http://id.d4k.dk/dataset/cdisc/sdtm/v3-4/cv/cvscat"
"2230","Perm","C71148","","Position of the subject during a measurement or examination. Examples: ""SUPINE"", ""STANDING"", ""SITTING"".","Position of Subject During Observation","CVPOS","14","Record Qualifier","Char","http://id.d4k.dk/dataset/cdisc/sdtm/v3-4/cv/cvpos"
"2231","Exp","","","Result of the measurement or finding as originally received or collected.","Result or Finding in Original Units","CVORRES","15","Result Qualifier","Char","http://id.d4k.dk/dataset/cdisc/sdtm/v3-4/cv/cvorres"
"2232","Perm","C71620","","Original units in which the data were collected. Unit for CVORRES.","Original Units","CVORRESU","16","Variable Qualifier","Char","http://id.d4k.dk/dataset/cdisc/sdtm/v3-4/cv/cvorresu"
"2233","Exp","","","Contains the result value for all findings, copied or derived, from CVORRES in a standard format or in standard units. CVSTRESC should store all results or findings in character format; if results are numeric, they should also be stored in numeric format in CVSTRESN. For example, if various tests have results ""NONE"", ""NEG"", and ""NEGATIVE"" in CVORRES and these results effectively have the same meaning, they could be represented in standard format in CVSTRESC as ""NEGATIVE"".","Character Result/Finding in Std Format","CVSTRESC","17","Result Qualifier","Char","http://id.d4k.dk/dataset/cdisc/sdtm/v3-4/cv/cvstresc"
"2234","Perm","","","Used for continuous or numeric results or findings in standard format; copied in numeric format from CVSTRESC. CVSTRESN should store all numeric test results or findings.","Numeric Result/Finding in Standard Units","CVSTRESN","18","Result Qualifier","Num","http://id.d4k.dk/dataset/cdisc/sdtm/v3-4/cv/cvstresn"
"2235","Perm","C71620","","Standardized units used for CVSTRESC and CVSTRESN.","Standard Units","CVSTRESU","19","Variable Qualifier","Char","http://id.d4k.dk/dataset/cdisc/sdtm/v3-4/cv/cvstresu"
"2236","Perm","C66789","","Used to indicate that a question was not asked or a test was not done, or a test was attempted but did not generate a result. Should be null or have a value of ""NOT DONE"".","Completion Status","CVSTAT","20","Record Qualifier","Char","http://id.d4k.dk/dataset/cdisc/sdtm/v3-4/cv/cvstat"
"2237","Perm","","","Describes why a measurement or test was not performed (e.g., ""BROKEN EQUIPMENT"", ""SUBJECT REFUSED""). Used in conjunction with CVSTAT when value is ""NOT DONE"".","Reason Not Done","CVREASND","21","Record Qualifier","Char","http://id.d4k.dk/dataset/cdisc/sdtm/v3-4/cv/cvreasnd"
"2238","Perm","C74456","","Anatomical location of the subject relevant to the collection of the measurement. Examples: ""HEART"", ""LEFT VENTRICLE"".","Location Used for the Measurement","CVLOC","22","Record Qualifier","Char","http://id.d4k.dk/dataset/cdisc/sdtm/v3-4/cv/cvloc"
"2239","Perm","C99073","","Qualifier for anatomical location or specimen further detailing laterality. Examples: ""RIGHT"", ""LEFT"", ""BILATERAL"", ""UNILATERAL"".","Laterality","CVLAT","23","Variable Qualifier","Char","http://id.d4k.dk/dataset/cdisc/sdtm/v3-4/cv/cvlat"
"2240","Perm","C99074","","Qualifier for anatomical location or specimen further detailing directionality. Examples: ""ANTERIOR"", ""LOWER"", ""PROXIMAL"".","Directionality","CVDIR","24","Variable Qualifier","Char","http://id.d4k.dk/dataset/cdisc/sdtm/v3-4/cv/cvdir"
"2241","Perm","C85492","","Method used to create the result.","Method of Test or Examination","CVMETHOD","25","Record Qualifier","Char","http://id.d4k.dk/dataset/cdisc/sdtm/v3-4/cv/cvmethod"
"2242","Exp","C66742","","Operationally-derived indicator used to identify the last non-missing value prior to RFXSTDTC. The value should be ""Y"" or null.","Last Observation Before Exposure Flag","CVLOBXFL","26","Record Qualifier","Char","http://id.d4k.dk/dataset/cdisc/sdtm/v3-4/cv/cvlobxfl"
"2243","Perm","C66742","","Indicator used to identify a baseline value. Should be ""Y"" or null. Note that CVBLFL is retained for backward compatibility. The authoritative baseline for statistical analysis is in an ADaM dataset.","Baseline Flag","CVBLFL","27","Record Qualifier","Char","http://id.d4k.dk/dataset/cdisc/sdtm/v3-4/cv/cvblfl"
"2244","Perm","C66742","","Used to indicate a derived record (i.e., a record that represents the average of other records, such as a computed baseline). Should be ""Y"" or null.","Derived Flag","CVDRVFL","28","Record Qualifier","Char","http://id.d4k.dk/dataset/cdisc/sdtm/v3-4/cv/cvdrvfl"
"2245","Perm","C78735","","Role of the person who provided the evaluation. Used only for results that are subjective (e.g., assigned by a person or a group). Examples: ""ADJUDICATION COMMITTEE"", "" INDEPENDENT ASSESSOR"", ""RADIOLOGIST"".","Evaluator","CVEVAL","29","Record Qualifier","Char","http://id.d4k.dk/dataset/cdisc/sdtm/v3-4/cv/cveval"
"2246","Perm","C96777","","Used to distinguish multiple evaluators with the same role recorded in CVEVAL. Examples: ""RADIOLOGIST1"" or ""RADIOLOGIST2"".","Evaluator Identifier","CVEVALID","30","Variable Qualifier","Char","http://id.d4k.dk/dataset/cdisc/sdtm/v3-4/cv/cvevalid"
"2247","Exp","","","Clinical encounter number. Numeric version of VISIT, used for sorting.","Visit Number","VISITNUM","31","Timing","Num","http://id.d4k.dk/dataset/cdisc/sdtm/v3-4/cv/visitnum"
"2248","Perm","","","Protocol-defined description of clinical encounter. May be used in addition to VISITNUM and/or VISITDY.","Visit Name","VISIT","32","Timing","Char","http://id.d4k.dk/dataset/cdisc/sdtm/v3-4/cv/visit"
"2249","Perm","","","Planned study day of VISIT. Should be an integer.","Planned Study Day of Visit","VISITDY","33","Timing","Num","http://id.d4k.dk/dataset/cdisc/sdtm/v3-4/cv/visitdy"
"2250","Perm","","","Number that gives the planned order of the element within the arm for the element in which the assessment was made.","Planned Order of Element within Arm","TAETORD","34","Timing","Num","http://id.d4k.dk/dataset/cdisc/sdtm/v3-4/cv/taetord"
"2251","Perm","C99079","","Epoch associated with the date/time at which the assessment was made.","Epoch","EPOCH","35","Timing","Char","http://id.d4k.dk/dataset/cdisc/sdtm/v3-4/cv/epoch"
"2252","Exp","","ISO 8601 datetime or interval","Collection date and time of an observation.","Date/Time of Test","CVDTC","36","Timing","Char","http://id.d4k.dk/dataset/cdisc/sdtm/v3-4/cv/cvdtc"
"2253","Perm","","","Actual study day of visit/collection/exam expressed in integer days relative to the sponsor-defined RFSTDTC in Demographics.","Study Day of Visit/Collection/Exam","CVDY","37","Timing","Num","http://id.d4k.dk/dataset/cdisc/sdtm/v3-4/cv/cvdy"
"2254","Perm","","","Text description of time when a measurement or observation should be taken, as defined in the protocol. This may be represented as an elapsed time relative to a fixed reference point, such as time of last dose. See CVTPTNUM and CVTPTREF.","Planned Time Point Name","CVTPT","38","Timing","Char","http://id.d4k.dk/dataset/cdisc/sdtm/v3-4/cv/cvtpt"
"2255","Perm","","","Numeric version of planned time point used in sorting.","Planned Time Point Number","CVTPTNUM","39","Timing","Num","http://id.d4k.dk/dataset/cdisc/sdtm/v3-4/cv/cvtptnum"
"2256","Perm","","ISO 8601 duration","Planned elapsed time relative to a planned fixed reference (CVTPTREF). Examples: ""PREVIOUS DOSE"", ""PREVIOUS MEAL"". This variable is useful where there are repetitive measures. Not a clock time or a date/time variable, but an interval, represented as ISO duration.","Planned Elapsed Time from Time Point Ref","CVELTM","40","Timing","Char","http://id.d4k.dk/dataset/cdisc/sdtm/v3-4/cv/cveltm"
"2257","Perm","","","Description of the fixed reference point referred to by CVELTM, CVTPTNUM, and CVTPT. Examples: ""PREVIOUS DOSE"", ""PREVIOUS MEAL"".","Time Point Reference","CVTPTREF","41","Timing","Char","http://id.d4k.dk/dataset/cdisc/sdtm/v3-4/cv/cvtptref"
"2258","Perm","","ISO 8601 datetime or interval","Date/time for a fixed reference time point defined by CVTPTREF.","Date/Time of Reference Time Point","CVRFTDTC","42","Timing","Char","http://id.d4k.dk/dataset/cdisc/sdtm/v3-4/cv/cvrftdtc"
"2259","Req","","","Unique identifier for a study within the submission.","Study Identifier","STUDYID","1","Identifier","Char","http://id.d4k.dk/dataset/cdisc/sdtm/v3-4/da/studyid"
"2260","Req","","","Two-character abbreviation for the domain.","Domain Abbreviation","DOMAIN","2","Identifier","Char","http://id.d4k.dk/dataset/cdisc/sdtm/v3-4/da/domain"
"2261","Req","","","Identifier used to uniquely identify a subject across all studies for all applications or submissions involving the product.","Unique Subject Identifier","USUBJID","3","Identifier","Char","http://id.d4k.dk/dataset/cdisc/sdtm/v3-4/da/usubjid"
"2262","Req","","","Sequence number given to ensure uniqueness of subject records within a domain. May be any valid number.","Sequence Number","DASEQ","4","Identifier","Num","http://id.d4k.dk/dataset/cdisc/sdtm/v3-4/da/daseq"
"2263","Perm","","","Used to tie together a block of related records in a single domain for a subject.","Group ID","DAGRPID","5","Identifier","Char","http://id.d4k.dk/dataset/cdisc/sdtm/v3-4/da/dagrpid"
"2264","Perm","","","Optional internal or external identifier such as a code from the product packaging (e.g., bottle label, package label, kit label).","Reference ID","DAREFID","6","Identifier","Char","http://id.d4k.dk/dataset/cdisc/sdtm/v3-4/da/darefid"
"2265","Perm","","","Sponsor-defined reference number. May be preprinted on the CRF as an explicit line identifier or defined in the sponsor's operational database. Examples: Line number on the Product Accountability CRF page, a code from the product packaging (e.g., bottle label, package label, kit label).","Sponsor-Defined Identifier","DASPID","7","Identifier","Char","http://id.d4k.dk/dataset/cdisc/sdtm/v3-4/da/daspid"
"2266","Perm","","","Identifier used to link related records across domains. This may be a one-to-one or a one-to-many relationship.","Link ID","DALNKID","8","Identifier","Char","http://id.d4k.dk/dataset/cdisc/sdtm/v3-4/da/dalnkid"
"2267","Perm","","","Identifier used to link related records across domains. This will usually be a many-to-one relationship.","Link Group ID","DALNKGRP","9","Identifier","Char","http://id.d4k.dk/dataset/cdisc/sdtm/v3-4/da/dalnkgrp"
"2268","Req","C78732","","Short character value for DATEST used as a column name when converting a dataset from a vertical format to a horizontal format. The short value can be up to 8 characters and cannot begin with a number or contain characters other than letters, numbers, or underscores. Examples: ""DISPAMT"", ""RETAMT"".","Short Name of Accountability Assessment","DATESTCD","10","Topic","Char","http://id.d4k.dk/dataset/cdisc/sdtm/v3-4/da/datestcd"
"2269","Req","C78731","","Verbatim name corresponding to the topic variable of the test or examination used to obtain the product accountability assessment. The value in DATEST cannot be longer than 40 characters. Examples: ""Dispensed Amount"", ""Returned Amount"".","Name of Accountability Assessment","DATEST","11","Synonym Qualifier","Char","http://id.d4k.dk/dataset/cdisc/sdtm/v3-4/da/datest"
"2270","Perm","","","Used to define a category of topic-variable values. Examples: ""STUDY MEDICATION"", ""RESCUE MEDICATION"".","Category","DACAT","12","Grouping Qualifier","Char","http://id.d4k.dk/dataset/cdisc/sdtm/v3-4/da/dacat"
"2271","Perm","","","Used to define a further categorization level for a group of related records.","Subcategory","DASCAT","13","Grouping Qualifier","Char","http://id.d4k.dk/dataset/cdisc/sdtm/v3-4/da/dascat"
"2272","Exp","","","Result of the product accountability assessment as originally received or collected.","Result or Finding in Original Units","DAORRES","14","Result Qualifier","Char","http://id.d4k.dk/dataset/cdisc/sdtm/v3-4/da/daorres"
"2273","Perm","C71620","","Unit for DAORRES.","Original Units","DAORRESU","15","Variable Qualifier","Char","http://id.d4k.dk/dataset/cdisc/sdtm/v3-4/da/daorresu"
"2274","Exp","","","Contains the result value for all product accountability assessments copied or derived from DAORRES, in a standard format or in standard units. DASTRESC should store all results or findings in character format; if results are numeric, they should also be stored in numeric format in DASTRESN.","Result or Finding in Standard Format","DASTRESC","16","Result Qualifier","Char","http://id.d4k.dk/dataset/cdisc/sdtm/v3-4/da/dastresc"
"2275","Perm","","","Used for continuous or numeric results or findings in standard format; copied in numeric format from DASTRESC. DASTRESN should store all numeric test results or findings.","Numeric Result/Finding in Standard Units","DASTRESN","17","Result Qualifier","Num","http://id.d4k.dk/dataset/cdisc/sdtm/v3-4/da/dastresn"
"2276","Perm","C71620","","Standardized units used for DASTRESC and DASTRESN.","Standard Units","DASTRESU","18","Variable Qualifier","Char","http://id.d4k.dk/dataset/cdisc/sdtm/v3-4/da/dastresu"
"2277","Perm","C66789","","Used to indicate that a product accountability assessment was not done. Should be null or have a value of ""NOT DONE"".","Completion Status","DASTAT","19","Record Qualifier","Char","http://id.d4k.dk/dataset/cdisc/sdtm/v3-4/da/dastat"
"2278","Perm","","","Reason not done. Used in conjunction with DASTAT when value is ""NOT DONE"".","Reason Not Done","DAREASND","20","Record Qualifier","Char","http://id.d4k.dk/dataset/cdisc/sdtm/v3-4/da/dareasnd"
"2279","Exp","","","Clinical encounter number. Numeric version of VISIT, used for sorting.","Visit Number","VISITNUM","21","Timing","Num","http://id.d4k.dk/dataset/cdisc/sdtm/v3-4/da/visitnum"
"2280","Perm","","","Protocol-defined description of a clinical encounter. May be used in addition to VISITNUM and/or VISITDY.","Visit Name","VISIT","22","Timing","Char","http://id.d4k.dk/dataset/cdisc/sdtm/v3-4/da/visit"
"2281","Perm","","","Planned study day of the visit, based upon RFSTDTC in Demographics.","Planned Study Day of Visit","VISITDY","23","Timing","Num","http://id.d4k.dk/dataset/cdisc/sdtm/v3-4/da/visitdy"
"2282","Perm","","","Number that gives the planned order of the element within the arm (see Section 7.2.1, Trial Arms).","Planned Order of Element within Arm","TAETORD","24","Timing","Num","http://id.d4k.dk/dataset/cdisc/sdtm/v3-4/da/taetord"
"2283","Perm","C99079","","Epoch associated with the start date/time of the observation, or the date/time of collection if start date/time is not collected.","Epoch","EPOCH","25","Timing","Char","http://id.d4k.dk/dataset/cdisc/sdtm/v3-4/da/epoch"
"2284","Exp","","ISO 8601 datetime or interval","Date and time of the product accountability assessment represented in ISO 8601 character format.","Date/Time of Collection","DADTC","26","Timing","Char","http://id.d4k.dk/dataset/cdisc/sdtm/v3-4/da/dadtc"
"2285","Perm","","","Study day of product accountability assessment, measured in integer days. Algorithm for calculations must be relative to the sponsor-defined RFSTDTC in Demographics.","Study Day of Visit/Collection/Exam","DADY","27","Timing","Num","http://id.d4k.dk/dataset/cdisc/sdtm/v3-4/da/dady"
"2286","Req","","","Unique identifier for a study.","Study Identifier","STUDYID","1","Identifier","Char","http://id.d4k.dk/dataset/cdisc/sdtm/v3-4/dd/studyid"
"2287","Req","","","Two-character abbreviation for the domain.","Domain Abbreviation","DOMAIN","2","Identifier","Char","http://id.d4k.dk/dataset/cdisc/sdtm/v3-4/dd/domain"
"2288","Req","","","Identifier used to uniquely identify a subject across all studies for all applications or submissions involving the product.","Unique Subject Identifier","USUBJID","3","Identifier","Char","http://id.d4k.dk/dataset/cdisc/sdtm/v3-4/dd/usubjid"
"2289","Req","","","Sequence number given to ensure uniqueness of subject records within a domain. May be any valid number.","Sequence Number","DDSEQ","4","Identifier","Num","http://id.d4k.dk/dataset/cdisc/sdtm/v3-4/dd/ddseq"
"2290","Req","C116108","","Short name of the measurement, test, or examination described in DDTEST. It can be used as a column name when converting a dataset from a vertical to a horizontal format. The value in DDTESTCD cannot be longer than 8 characters, nor can it start with a number (e.g., ""1TEST"" is not valid). DDTESTCD cannot contain characters other than letters, numbers, or underscores. Examples: ""PRCDTH"", ""SECDTH"".","Death Detail Assessment Short Name","DDTESTCD","5","Topic","Char","http://id.d4k.dk/dataset/cdisc/sdtm/v3-4/dd/ddtestcd"
"2291","Req","C116107","","Long name for DDTESTCD. The value in DDTEST cannot be longer than 40 characters. Examples: ""Primary Cause of Death"", ""Secondary Cause of Death"".","Death Detail Assessment Name","DDTEST","6","Synonym Qualifier","Char","http://id.d4k.dk/dataset/cdisc/sdtm/v3-4/dd/ddtest"
"2292","Exp","","","Result of the test defined in DDTEST, as originally received or collected.","Result or Finding as Collected","DDORRES","7","Result Qualifier","Char","http://id.d4k.dk/dataset/cdisc/sdtm/v3-4/dd/ddorres"
"2293","Exp","","","Contains the result or finding copied or derived from DDORRES in a standard format.","Character Result/Finding in Std Format","DDSTRESC","8","Result Qualifier","Char","http://id.d4k.dk/dataset/cdisc/sdtm/v3-4/dd/ddstresc"
"2294","Perm","","","Used to categorize the result of a finding. Examples: ""TREATMENT RELATED"", ""NONTREATMENT RELATED"", ""UNDETERMINED"", ""ACCIDENTAL"".","Result Category","DDRESCAT","9","Variable Qualifier","Char","http://id.d4k.dk/dataset/cdisc/sdtm/v3-4/dd/ddrescat"
"2295","Perm","C78735","","Role of the person who provided the evaluation.","Evaluator","DDEVAL","10","Record Qualifier","Char","http://id.d4k.dk/dataset/cdisc/sdtm/v3-4/dd/ddeval"
"2296","Exp","","ISO 8601 datetime or interval","Date/time of collection of the diagnosis or other death assessment data in ISO 8601 format. This is not necessarily the date of death.","Date/Time of Collection","DDDTC","11","Timing","Char","http://id.d4k.dk/dataset/cdisc/sdtm/v3-4/dd/dddtc"
"2297","Perm","","","Study day of the collection, in integer days. The algorithm for calculations must be relative to the sponsor-defined RFSTDTC variable in the Demographics (DM) domain.","Study Day of Collection","DDDY","12","Timing","Num","http://id.d4k.dk/dataset/cdisc/sdtm/v3-4/dd/dddy"
"2298","Req","","","Unique identifier for a study.","Study Identifier","STUDYID","1","Identifier","Char","http://id.d4k.dk/dataset/cdisc/sdtm/v3-4/eg/studyid"
"2299","Req","","","Two-character abbreviation for the domain.","Domain Abbreviation","DOMAIN","2","Identifier","Char","http://id.d4k.dk/dataset/cdisc/sdtm/v3-4/eg/domain"
"2300","Req","","","Identifier used to uniquely identify a subject across all studies for all applications or submissions involving the product.","Unique Subject Identifier","USUBJID","3","Identifier","Char","http://id.d4k.dk/dataset/cdisc/sdtm/v3-4/eg/usubjid"
"2301","Perm","","","Sponsor-defined identifier for a device.","Sponsor Device Identifier","SPDEVID","4","Identifier","Char","http://id.d4k.dk/dataset/cdisc/sdtm/v3-4/eg/spdevid"
"2302","Req","","","Sequence number given to ensure uniqueness of subject records within a domain. May be any valid number.","Sequence Number","EGSEQ","5","Identifier","Num","http://id.d4k.dk/dataset/cdisc/sdtm/v3-4/eg/egseq"
"2303","Perm","","","Used to tie together a block of related records in a single domain for a subject.","Group ID","EGGRPID","6","Identifier","Char","http://id.d4k.dk/dataset/cdisc/sdtm/v3-4/eg/eggrpid"
"2304","Perm","","","Internal or external ECG identifier. Example: ""334PT89"".","ECG Reference ID","EGREFID","7","Identifier","Char","http://id.d4k.dk/dataset/cdisc/sdtm/v3-4/eg/egrefid"
"2305","Perm","","","Sponsor-defined reference number. May be printed on the CRF as an explicit line identifier or defined in the sponsor's operational database. Example: Line number on the ECG page.","Sponsor-Defined Identifier","EGSPID","8","Identifier","Char","http://id.d4k.dk/dataset/cdisc/sdtm/v3-4/eg/egspid"
"2306","Perm","","","A sequence number that identifies the beat within an ECG.","ECG Beat Number","EGBEATNO","9","Identifier","Num","http://id.d4k.dk/dataset/cdisc/sdtm/v3-4/eg/egbeatno"
"2307","Req","C71153","","Short name of the measurement, test, or examination described in EGTEST. It can be used as a column name when converting a dataset from a vertical to a horizontal format. The value in EGTESTCD cannot be longer than 8 characters, nor can it start with a number (e.g., ""1TEST"" is not valid). EGTESTCD cannot contain characters other than letters, numbers, or underscores. Examples: ""PRAG"", ""QRSAG"". \n Test codes are in 2 separate codelists, 1 for tests based on regular 10-second ECGs (EGTESTCD) and one 1 tests based on Holter monitoring (HETESTCD).","ECG Test or Examination Short Name","EGTESTCD","10","Topic","Char","http://id.d4k.dk/dataset/cdisc/sdtm/v3-4/eg/egtestcd"
"2308","Req","C71152","","Verbatim name of the test or examination used to obtain the measurement or finding. The value in EGTEST cannot be longer than 40 characters. Examples: ""PR Interval, Aggregate"", ""QRS Duration, Aggregate"". \n Test names are in 2 separate codelists, 1 for tests based on regular 10-second ECGs (EGTEST) and 1 for tests based on Holter monitoring (HETEST).","ECG Test or Examination Name","EGTEST","11","Synonym Qualifier","Char","http://id.d4k.dk/dataset/cdisc/sdtm/v3-4/eg/egtest"
"2309","Perm","","","Used to categorize ECG observations across subjects. Examples: ""MEASUREMENT"", ""FINDING"", ""INTERVAL"".","Category for ECG","EGCAT","12","Grouping Qualifier","Char","http://id.d4k.dk/dataset/cdisc/sdtm/v3-4/eg/egcat"
"2310","Perm","","","A further categorization of the ECG.","Subcategory for ECG","EGSCAT","13","Grouping Qualifier","Char","http://id.d4k.dk/dataset/cdisc/sdtm/v3-4/eg/egscat"
"2311","Perm","C71148","","Position of the subject during a measurement or examination. Examples: ""SUPINE"", ""STANDING"", ""SITTING"".","ECG Position of Subject","EGPOS","14","Record Qualifier","Char","http://id.d4k.dk/dataset/cdisc/sdtm/v3-4/eg/egpos"
"2312","Exp","","","Result of the ECG measurement or finding as originally received or collected. Examples of expected values are ""62"" or ""0.151"" when the result is an interval or measurement, or ""ATRIAL FIBRILLATION"" or ""QT PROLONGATION"" when the result is a finding.","Result or Finding in Original Units","EGORRES","15","Result Qualifier","Char","http://id.d4k.dk/dataset/cdisc/sdtm/v3-4/eg/egorres"
"2313","Perm","C71620","","Original units in which the data were collected. The unit for EGORRES. Examples: ""sec"", ""msec"".","Original Units","EGORRESU","16","Variable Qualifier","Char","http://id.d4k.dk/dataset/cdisc/sdtm/v3-4/eg/egorresu"
"2314","Exp","C71150","","Contains the result value for all findings copied or derived from EGORRES, in a standard format or standard units. EGSTRESC should store all results or findings in character format; if results are numeric, they should also be stored in numeric format in EGSTRESN. For example, if a test has results of 62 beats/min, then EGORRES = ""62"", EGORRESU = ""beats/min"", EGSTRESC = ""62"", EGSTRESN = 62, and EGSTRESU = ""beats/min"" . For other examples, see Original and Standardized Results. Additional examples of result data: ""SINUS BRADYCARDIA"", ""ATRIAL FLUTTER"", ""ATRIAL FIBRILLATION"". \n Test results are in 3 separate codelists: EGSTRESC for abnormal test results based on regular 10-second ECGs; HESTRESC for abnormal test results based on Holter monitoring, and NORMABNM for generic test results and/or responses to EGTEST = ""Interpretation"".","Character Result/Finding in Std Format","EGSTRESC","17","Result Qualifier","Char","http://id.d4k.dk/dataset/cdisc/sdtm/v3-4/eg/egstresc"
"2315","Perm","","","Used for continuous or numeric results or findings in standard format; copied in numeric format from EGSTRESC. EGSTRESN should store all numeric test results or findings.","Numeric Result/Finding in Standard Units","EGSTRESN","18","Result Qualifier","Num","http://id.d4k.dk/dataset/cdisc/sdtm/v3-4/eg/egstresn"
"2316","Perm","C71620","","Standardized units used for EGSTRESC and EGSTRESN.","Standard Units","EGSTRESU","19","Variable Qualifier","Char","http://id.d4k.dk/dataset/cdisc/sdtm/v3-4/eg/egstresu"
"2317","Perm","C66789","","Used to indicate an ECG was not done, or an ECG measurement was not taken. Should be null if a result exists in EGORRES.","Completion Status","EGSTAT","20","Record Qualifier","Char","http://id.d4k.dk/dataset/cdisc/sdtm/v3-4/eg/egstat"
"2318","Perm","","","Describes why a measurement or test was not performed. Examples: ""BROKEN EQUIPMENT"", ""SUBJECT REFUSED"". Used in conjunction with EGSTAT when value is ""NOT DONE"".","Reason ECG Not Done","EGREASND","21","Record Qualifier","Char","http://id.d4k.dk/dataset/cdisc/sdtm/v3-4/eg/egreasnd"
"2319","Perm","","","File name and path for the external ECG waveform file.","ECG External File Path","EGXFN","22","Record Qualifier","Char","http://id.d4k.dk/dataset/cdisc/sdtm/v3-4/eg/egxfn"
"2320","Perm","","","Name or identifier of the laboratory or vendor providing the test results.","Vendor Name","EGNAM","23","Record Qualifier","Char","http://id.d4k.dk/dataset/cdisc/sdtm/v3-4/eg/egnam"
"2321","Perm","C71151","","Method of the ECG test. Example: ""12-LEAD STANDARD"".","Method of Test or Examination","EGMETHOD","24","Record Qualifier","Char","http://id.d4k.dk/dataset/cdisc/sdtm/v3-4/eg/egmethod"
"2322","Perm","C90013","","The lead used for the measurement. Examples: ""LEAD 1"", ""LEAD 2"", ""LEAD rV2"", ""LEAD V1"".","Lead Location Used for Measurement","EGLEAD","25","Record Qualifier","Char","http://id.d4k.dk/dataset/cdisc/sdtm/v3-4/eg/eglead"
"2323","Exp","C66742","","Operationally derived indicator used to identify the last non-missing value prior to RFXSTDTC. The value should be ""Y"" or null.","Last Observation Before Exposure Flag","EGLOBXFL","26","Record Qualifier","Char","http://id.d4k.dk/dataset/cdisc/sdtm/v3-4/eg/eglobxfl"
"2324","Perm","C66742","","Indicator used to identify a baseline value. Should be ""Y"" or null. Note that EGBLFL is retained for backward compatibility. The authoritative baseline for statistical analysis is in an ADaM dataset.","Baseline Flag","EGBLFL","27","Record Qualifier","Char","http://id.d4k.dk/dataset/cdisc/sdtm/v3-4/eg/egblfl"
"2325","Perm","C66742","","Used to indicate a derived record. The value should be ""Y"" or null. Records that represent the average of other records, or that do not come from the CRF, or are not as originally collected or received are examples of records that would be derived for the submission datasets. If EGDRVFL=""Y"", then EGORRES could be null, with EGSTRESC and EGSTRESN (if the result is numeric) having the derived value.","Derived Flag","EGDRVFL","28","Record Qualifier","Char","http://id.d4k.dk/dataset/cdisc/sdtm/v3-4/eg/egdrvfl"
"2326","Perm","C78735","","Role of the person who provided the evaluation. Used only for results that are subjective (e.g., assigned by a person or a group). Should be null for records that contain collected or derived data. Examples: ""INVESTIGATOR"", ""ADJUDICATION COMMITTEE"", ""VENDOR"".","Evaluator","EGEVAL","29","Record Qualifier","Char","http://id.d4k.dk/dataset/cdisc/sdtm/v3-4/eg/egeval"
"2327","Perm","C96777","","Used to distinguish multiple evaluators with the same role recorded in EGEVAL. Examples: ""RADIOLOGIST 1"" or ""RADIOLOGIST 2"".","Evaluator Identifier","EGEVALID","30","Variable Qualifier","Char","http://id.d4k.dk/dataset/cdisc/sdtm/v3-4/eg/egevalid"
"2328","Perm","C66742","","Used to indicate whether a collected observation is clinically significant based on judgment.","Clinically Significant, Collected","EGCLSIG","31","Record Qualifier","Char","http://id.d4k.dk/dataset/cdisc/sdtm/v3-4/eg/egclsig"
"2329","Perm","","","The incidence number of a test that is repeated within a given timeframe for the same test. The level of granularity can vary (e.g., within a time point, within a visit). Examples: multiple measurements of blood pressure, multiple analyses of a sample.","Repetition Number","EGREPNUM","32","Record Qualifier","Num","http://id.d4k.dk/dataset/cdisc/sdtm/v3-4/eg/egrepnum"
"2330","Exp","","","Clinical encounter number. Numeric version of VISIT, used for sorting.","Visit Number","VISITNUM","33","Timing","Num","http://id.d4k.dk/dataset/cdisc/sdtm/v3-4/eg/visitnum"
"2331","Perm","","","Protocol-defined description of clinical encounter. May be used in addition to VISITNUM and/or VISITDY.","Visit Name","VISIT","34","Timing","Char","http://id.d4k.dk/dataset/cdisc/sdtm/v3-4/eg/visit"
"2332","Perm","","","Planned study day of the visit based upon RFSTDTC in Demographics.","Planned Study Day of Visit","VISITDY","35","Timing","Num","http://id.d4k.dk/dataset/cdisc/sdtm/v3-4/eg/visitdy"
"2333","Perm","","","Number that gives the planned order of the element within the arm for the element in which the assessment was made.","Planned Order of Element within Arm","TAETORD","36","Timing","Num","http://id.d4k.dk/dataset/cdisc/sdtm/v3-4/eg/taetord"
"2334","Perm","C99079","","Epoch associated with the date/time at which the assessment was made.","Epoch","EPOCH","37","Timing","Char","http://id.d4k.dk/dataset/cdisc/sdtm/v3-4/eg/epoch"
"2335","Exp","","ISO 8601 datetime or interval","Date/Time of ECG.","Date/Time of ECG","EGDTC","38","Timing","Char","http://id.d4k.dk/dataset/cdisc/sdtm/v3-4/eg/egdtc"
"2336","Perm","","","Study day of the ECG, measured as integer days. Algorithm for calculations must be relative to the sponsor-defined RFSTDTC variable in Demographics.","Study Day of ECG","EGDY","39","Timing","Num","http://id.d4k.dk/dataset/cdisc/sdtm/v3-4/eg/egdy"
"2337","Perm","","","Text description of time when measurement should be taken. This may be represented as an elapsed time relative to a fixed reference point, such as time of last dose. See EGTPTNUM and EGTPTREF. Examples: ""Start"", ""5 min post"".","Planned Time Point Name","EGTPT","40","Timing","Char","http://id.d4k.dk/dataset/cdisc/sdtm/v3-4/eg/egtpt"
"2338","Perm","","","Numerical version of EGTPT to aid in sorting.","Planned Time Point Number","EGTPTNUM","41","Timing","Num","http://id.d4k.dk/dataset/cdisc/sdtm/v3-4/eg/egtptnum"
"2339","Perm","","ISO 8601 duration","Planned elapsed time (in ISO 8601) relative to a fixed time point reference (EGTPTREF). Not a clock time or a date time variable. Represented as an ISO 8601 duration. Examples: ""-PT15M"" to represent the period of 15 minutes prior to the reference point indicated by EGTPTREF, ""PT8H"" to represent the period of 8 hours after the reference point indicated by EGTPTREF.","Planned Elapsed Time from Time Point Ref","EGELTM","42","Timing","Char","http://id.d4k.dk/dataset/cdisc/sdtm/v3-4/eg/egeltm"
"2340","Perm","","","Name of the fixed reference point referred to by EGELTM, EGTPTNUM, and EGTPT. Examples: ""PREVIOUS DOSE"", ""PREVIOUS MEAL"".","Time Point Reference","EGTPTREF","43","Timing","Char","http://id.d4k.dk/dataset/cdisc/sdtm/v3-4/eg/egtptref"
"2341","Perm","","ISO 8601 datetime or interval","Date/time for a fixed reference time point defined by EGTPTREF.","Date/Time of Reference Time Point","EGRFTDTC","44","Timing","Char","http://id.d4k.dk/dataset/cdisc/sdtm/v3-4/eg/egrftdtc"
"2342","Req","","","Unique identifier for a study.","Study Identifier","STUDYID","1","Identifier","Char","http://id.d4k.dk/dataset/cdisc/sdtm/v3-4/ft/studyid"
"2343","Req","","","Two-character abbreviation for the domain.","Domain Abbreviation","DOMAIN","2","Identifier","Char","http://id.d4k.dk/dataset/cdisc/sdtm/v3-4/ft/domain"
"2344","Req","","","Identifier used to uniquely identify a subject across all studies for all applications or submissions involving the product.","Unique Subject Identifier","USUBJID","3","Identifier","Char","http://id.d4k.dk/dataset/cdisc/sdtm/v3-4/ft/usubjid"
"2345","Req","","","Sequence number to ensure uniqueness of records within a dataset for a subject. May be any valid number.","Sequence Number","FTSEQ","4","Identifier","Num","http://id.d4k.dk/dataset/cdisc/sdtm/v3-4/ft/ftseq"
"2346","Perm","","","Optional group identifier, used to link together a block of related records within a subject in a domain.","Group ID","FTGRPID","5","Identifier","Char","http://id.d4k.dk/dataset/cdisc/sdtm/v3-4/ft/ftgrpid"
"2347","Perm","","","Optional internal or external identifier.","Reference ID","FTREFID","6","Identifier","Char","http://id.d4k.dk/dataset/cdisc/sdtm/v3-4/ft/ftrefid"
"2348","Perm","","","Sponsor-defined identifier. May be preprinted on the CRF as an explicit line identifier or defined in the sponsor's operational database. Example: Line number on the Test page.","Sponsor-Defined Identifier","FTSPID","7","Identifier","Char","http://id.d4k.dk/dataset/cdisc/sdtm/v3-4/ft/ftspid"
"2349","Req","","","Short character value for FTTEST, which can be used as a column name when converting a dataset from a vertical format to a horizontal format. The value cannot be longer than 8 characters, nor can it start with a number (e.g., ""1TEST"" is not valid). FTTESTCD cannot contain characters other than letters, numbers, or underscores. \n Controlled terminology for FTTESTCD is published in separate codelists for each instrument. See https://www.cdisc.org/standards/terminology/controlled-terminology for values for FTTESTCD. Examples: ""W250101"", ""W25F0102"".","Short Name of Test","FTTESTCD","8","Topic","Char","http://id.d4k.dk/dataset/cdisc/sdtm/v3-4/ft/fttestcd"
"2350","Req","","","Verbatim name of the question used to obtain the finding. The value in FTTEST cannot be longer than 40 characters. \n Controlled terminology for FTTEST is published in separate codelists for each instrument. See https://www.cdisc.org/standards/terminology/controlled-terminology for values for FTTEST. Examples: ""W2501-25 Foot Walk Time"", ""W25F-More Than Two Attempts"".","Name of Test","FTTEST","9","Synonym Qualifier","Char","http://id.d4k.dk/dataset/cdisc/sdtm/v3-4/ft/fttest"
"2351","Req","C115304","","Used to specify the functional test in which the functional test question identified by FTTEST and FTTESTCD was included.","Category","FTCAT","10","Grouping Qualifier","Char","http://id.d4k.dk/dataset/cdisc/sdtm/v3-4/ft/ftcat"
